Stimulus,Type,log_freq_HAL,correct_response,the_font,the_font2,the_jpeg,phase,set,practicetrials.thisRepN,practicetrials.thisTrialN,practicetrials.thisN,practicetrials.thisIndex,trials.thisRepN,trials.thisTrialN,trials.thisN,trials.thisIndex,which_spreadsheet,intro_text.started,intro_text.stopped,key_resp_4.keys,key_resp_4.rt,key_resp_4.started,key_resp_4.stopped,image_practice.started,image_practice.stopped,response_practice.keys,response_practice.corr,response_practice.rt,response_practice.started,response_practice.stopped,feedback_text.started,feedback_text.stopped,text_3.started,text_3.stopped,key_resp_3.keys,key_resp_3.rt,key_resp_3.started,key_resp_3.stopped,key_resp.keys,key_resp.corr,key_resp.rt,key_resp.started,key_resp.stopped,image_comic.started,image_comic.stopped,image_georgia.started,image_georgia.stopped,text_end.started,text_end.stopped,participant,date,expName,psychopyVersion,frameRate,
,,,,,,,,,,,,,,,,,setA.xlsx,22.481960500008427,None,space,13.422597332988516,22.481960500008427,None,,,,,,,,,,,,,,,,,,,,,,,,,,,CL479,2022_Feb_02_1239,LexicalDescionTrial,2021.2.3,59.82249183241443,
kail,non-word,na,n,comic sans,1,practice10.jpeg,practice,practice,0,0,0,9,,,,,,,,,,,,35.98260033300903,None,w,0,2.5068160829978297,35.98260033300903,None,38.52783000000636,None,,,,,,,,,,,,,,,,,,CL479,2022_Feb_02_1239,LexicalDescionTrial,2021.2.3,59.82249183241443,
darm,non-word,na,n,georgia,2,practice7.jpeg,practice,practice,0,1,1,6,,,,,,,,,,,,39.54202666600759,None,n,1,1.9159781670023222,39.54202666600759,None,41.4912590830063,None,,,,,,,,,,,,,,,,,,CL479,2022_Feb_02_1239,LexicalDescionTrial,2021.2.3,59.82249183241443,
nars,non-word,na,n,georgia,2,practice8.jpeg,practice,practice,0,2,2,7,,,,,,,,,,,,42.50546470801055,None,n,1,1.005346208010451,42.50546470801055,None,43.535688125004526,None,,,,,,,,,,,,,,,,,,CL479,2022_Feb_02_1239,LexicalDescionTrial,2021.2.3,59.82249183241443,
pond,word,na,w,comic sans,1,practice5.jpeg,practice,practice,0,3,3,4,,,,,,,,,,,,44.538194583001314,None,w,1,0.9046225830097683,44.538194583001314,None,45.469033916000626,None,,,,,,,,,,,,,,,,,,CL479,2022_Feb_02_1239,LexicalDescionTrial,2021.2.3,59.82249183241443,
ball,word,na,w,georgia,2,practice2.jpeg,practice,practice,0,4,4,1,,,,,,,,,,,,46.47268541601079,None,w,1,0.6294935829937458,46.47268541601079,None,47.119288500005496,None,,,,,,,,,,,,,,,,,,CL479,2022_Feb_02_1239,LexicalDescionTrial,2021.2.3,59.82249183241443,
mitt,word,na,w,georgia,2,practice3.jpeg,practice,practice,0,5,5,2,,,,,,,,,,,,48.12207825000223,None,n,0,0.8964319590013474,48.12207825000223,None,49.03560629101412,None,,,,,,,,,,,,,,,,,,CL479,2022_Feb_02_1239,LexicalDescionTrial,2021.2.3,59.82249183241443,
larp,non-word,na,n,comic sans,1,practice11.jpeg,practice,practice,0,6,6,10,,,,,,,,,,,,50.051553083001636,None,n,1,0.9417017500090878,50.051553083001636,None,51.02076758300245,None,,,,,,,,,,,,,,,,,,CL479,2022_Feb_02_1239,LexicalDescionTrial,2021.2.3,59.82249183241443,
fizz,word,na,w,georgia,2,practice1.jpeg,practice,practice,0,7,7,0,,,,,,,,,,,,52.03869245800888,None,w,1,0.8575858749973122,52.03869245800888,None,52.919127500004834,None,,,,,,,,,,,,,,,,,,CL479,2022_Feb_02_1239,LexicalDescionTrial,2021.2.3,59.82249183241443,
faud,non-word,na,n,georgia,2,practice9.jpeg,practice,practice,0,8,8,8,,,,,,,,,,,,53.92101608301164,None,w,0,0.8000257910025539,53.92101608301164,None,54.75257745801355,None,,,,,,,,,,,,,,,,,,CL479,2022_Feb_02_1239,LexicalDescionTrial,2021.2.3,59.82249183241443,
slim,word,na,w,comic sans,1,practice6.jpeg,practice,practice,0,9,9,5,,,,,,,,,,,,55.75525462500809,None,w,1,1.0047976670030039,55.75525462500809,None,56.78628270800982,None,,,,,,,,,,,,,,,,,,CL479,2022_Feb_02_1239,LexicalDescionTrial,2021.2.3,59.82249183241443,
gnaw,word,na,w,comic sans,1,practice4.jpeg,practice,practice,0,10,10,3,,,,,,,,,,,,57.78801387500425,None,w,1,0.9073812080023345,57.78801387500425,None,58.719055625013425,None,,,,,,,,,,,,,,,,,,CL479,2022_Feb_02_1239,LexicalDescionTrial,2021.2.3,59.82249183241443,
pove,non-word,na,n,comic sans,1,practice12.jpeg,practice,practice,0,11,11,11,,,,,,,,,,,,59.72123612501309,None,n,1,0.8083563340042019,59.72123612501309,None,60.55254633301229,None,,,,,,,,,,,,,,,,,,CL479,2022_Feb_02_1239,LexicalDescionTrial,2021.2.3,59.82249183241443,
,,,,,,,,,,,,,,,,,,,,,,,,,,,,,,,,,61.55253833300958,None,space,3.142776666994905,61.55253833300958,None,,,,,,,,,,,,CL479,2022_Feb_02_1239,LexicalDescionTrial,2021.2.3,59.82249183241443,
lamb,word,8.144,w,georgia,2,Georgia29.jpeg,experimental,A,,,,,0,0,0,28,,,,,,,,,,,,,,,,,,,,,,,w,1,0.952188750001369,64.77341416600393,None,None,None,64.77341416600393,None,,,CL479,2022_Feb_02_1239,LexicalDescionTrial,2021.2.3,59.82249183241443,
babe,word,8.059,w,comic sans,1,ComicSans2.jpeg,experimental,A,,,,,0,1,1,1,,,,,,,,,,,,,,,,,,,,,,,w,1,1.0999000419978984,65.76962966601423,None,65.76962966601423,None,None,None,,,CL479,2022_Feb_02_1239,LexicalDescionTrial,2021.2.3,59.82249183241443,
memo,word,8.108,w,comic sans,1,ComicSans12.jpeg,experimental,A,,,,,0,2,2,11,,,,,,,,,,,,,,,,,,,,,,,w,1,1.0130626669997582,66.9038706660067,None,66.9038706660067,None,None,None,,,CL479,2022_Feb_02_1239,LexicalDescionTrial,2021.2.3,59.82249183241443,
gelp,non-word,None,n,comic sans,1,ComicSans58.jpeg,experimental,A,,,,,0,3,3,57,,,,,,,,,,,,,,,,,,,,,,,n,1,0.6764996669953689,67.95320091600297,None,67.95320091600297,None,None,None,,,CL479,2022_Feb_02_1239,LexicalDescionTrial,2021.2.3,59.82249183241443,
mist,word,8.091,w,comic sans,1,ComicSans10.jpeg,experimental,A,,,,,0,4,4,9,,,,,,,,,,,,,,,,,,,,,,,w,1,0.7226447499997448,68.6689470410056,None,68.6689470410056,None,None,None,,,CL479,2022_Feb_02_1239,LexicalDescionTrial,2021.2.3,59.82249183241443,
watt,word,8.145,w,georgia,2,Georgia30.jpeg,experimental,A,,,,,0,5,5,29,,,,,,,,,,,,,,,,,,,,,,,w,1,0.955793333996553,69.43498358300712,None,None,None,69.43498358300712,None,,,CL479,2022_Feb_02_1239,LexicalDescionTrial,2021.2.3,59.82249183241443,
powl,non-word,None,n,comic sans,1,ComicSans60.jpeg,experimental,A,,,,,0,6,6,59,,,,,,,,,,,,,,,,,,,,,,,n,1,0.7306020830001216,70.4342683750001,None,70.4342683750001,None,None,None,,,CL479,2022_Feb_02_1239,LexicalDescionTrial,2021.2.3,59.82249183241443,
voar,non-word,None,n,georgia,2,Georgia70.jpeg,experimental,A,,,,,0,7,7,69,,,,,,,,,,,,,,,,,,,,,,,n,1,1.457895291998284,71.2016259580123,None,None,None,71.2016259580123,None,,,CL479,2022_Feb_02_1239,LexicalDescionTrial,2021.2.3,59.82249183241443,
hawk,word,8.188,w,georgia,2,Georgia40.jpeg,experimental,A,,,,,0,8,8,39,,,,,,,,,,,,,,,,,,,,,,,w,1,0.7075834580027731,72.70117912501155,None,None,None,72.70117912501155,None,,,CL479,2022_Feb_02_1239,LexicalDescionTrial,2021.2.3,59.82249183241443,
oath,word,8.187,w,georgia,2,Georgia38.jpeg,experimental,A,,,,,0,9,9,37,,,,,,,,,,,,,,,,,,,,,,,w,1,0.7495410410047043,73.45122808300948,None,None,None,73.45122808300948,None,,,CL479,2022_Feb_02_1239,LexicalDescionTrial,2021.2.3,59.82249183241443,
vekd,non-word,None,n,georgia,2,Georgia76.jpeg,experimental,A,,,,,0,10,10,75,,,,,,,,,,,,,,,,,,,,,,,n,1,0.6605119590094546,74.23394812500919,None,None,None,74.23394812500919,None,,,CL479,2022_Feb_02_1239,LexicalDescionTrial,2021.2.3,59.82249183241443,
tray,word,8.126,w,comic sans,1,ComicSans19.jpeg,experimental,A,,,,,0,11,11,18,,,,,,,,,,,,,,,,,,,,,,,w,1,0.6594832090049749,74.93423545800033,None,74.93423545800033,None,None,None,,,CL479,2022_Feb_02_1239,LexicalDescionTrial,2021.2.3,59.82249183241443,
tave,non-word,None,n,georgia,2,Georgia65.jpeg,experimental,A,,,,,0,12,12,64,,,,,,,,,,,,,,,,,,,,,,,n,1,0.9157389999891166,75.63520816600067,None,None,None,75.63520816600067,None,,,CL479,2022_Feb_02_1239,LexicalDescionTrial,2021.2.3,59.82249183241443,
jets,word,8.081,w,comic sans,1,ComicSans7.jpeg,experimental,A,,,,,0,13,13,6,,,,,,,,,,,,,,,,,,,,,,,w,1,1.161739374991157,76.58494475000771,None,76.58494475000771,None,None,None,,,CL479,2022_Feb_02_1239,LexicalDescionTrial,2021.2.3,59.82249183241443,
otey,non-word,None,n,georgia,2,Georgia63.jpeg,experimental,A,,,,,0,14,14,62,,,,,,,,,,,,,,,,,,,,,,,n,1,0.7811458750074962,77.78628166600538,None,None,None,77.78628166600538,None,,,CL479,2022_Feb_02_1239,LexicalDescionTrial,2021.2.3,59.82249183241443,
spew,word,8.117,w,comic sans,1,ComicSans16.jpeg,experimental,A,,,,,0,15,15,15,,,,,,,,,,,,,,,,,,,,,,,n,0,1.029087625007378,78.59993704101362,None,78.59993704101362,None,None,None,,,CL479,2022_Feb_02_1239,LexicalDescionTrial,2021.2.3,59.82249183241443,
aged,word,8.142,w,georgia,2,Georgia24.jpeg,experimental,A,,,,,0,16,16,23,,,,,,,,,,,,,,,,,,,,,,,w,1,0.9448159579915227,79.66779483300343,None,None,None,79.66779483300343,None,,,CL479,2022_Feb_02_1239,LexicalDescionTrial,2021.2.3,59.82249183241443,
runk,non-word,None,n,comic sans,1,ComicSans54.jpeg,experimental,A,,,,,0,17,17,53,,,,,,,,,,,,,,,,,,,,,,,n,1,0.9359874580113683,80.65215225001157,None,80.65215225001157,None,None,None,,,CL479,2022_Feb_02_1239,LexicalDescionTrial,2021.2.3,59.82249183241443,
soda,word,8.122,w,comic sans,1,ComicSans18.jpeg,experimental,A,,,,,0,18,18,17,,,,,,,,,,,,,,,,,,,,,,,w,1,0.5550886249984615,81.63517950000823,None,81.63517950000823,None,None,None,,,CL479,2022_Feb_02_1239,LexicalDescionTrial,2021.2.3,59.82249183241443,
cone,word,8.72,w,georgia,2,Georgia34.jpeg,experimental,A,,,,,0,19,19,33,,,,,,,,,,,,,,,,,,,,,,,w,1,0.6382363330048975,82.23403495800449,None,None,None,82.23403495800449,None,,,CL479,2022_Feb_02_1239,LexicalDescionTrial,2021.2.3,59.82249183241443,
flut,non-word,None,n,georgia,2,Georgia69.jpeg,experimental,A,,,,,0,20,20,68,,,,,,,,,,,,,,,,,,,,,,,n,1,0.6796757080010138,82.9184900830005,None,None,None,82.9184900830005,None,,,CL479,2022_Feb_02_1239,LexicalDescionTrial,2021.2.3,59.82249183241443,
vire,non-word,None,n,georgia,2,Georgia68.jpeg,experimental,A,,,,,0,21,21,67,,,,,,,,,,,,,,,,,,,,,,,n,1,0.8372372919984628,83.63540066601126,None,None,None,83.63540066601126,None,,,CL479,2022_Feb_02_1239,LexicalDescionTrial,2021.2.3,59.82249183241443,
hilp,non-word,None,n,comic sans,1,ComicSans59.jpeg,experimental,A,,,,,0,22,22,58,,,,,,,,,,,,,,,,,,,,,,,n,1,1.446586208010558,84.5177335000044,None,84.5177335000044,None,None,None,,,CL479,2022_Feb_02_1239,LexicalDescionTrial,2021.2.3,59.82249183241443,
cial,non-word,None,n,georgia,2,Georgia77.jpeg,experimental,A,,,,,0,23,23,76,,,,,,,,,,,,,,,,,,,,,,,n,1,0.878218999991077,86.00230033301341,None,None,None,86.00230033301341,None,,,CL479,2022_Feb_02_1239,LexicalDescionTrial,2021.2.3,59.82249183241443,
keen,word,8.144,w,georgia,2,Georgia28.jpeg,experimental,A,,,,,0,24,24,27,,,,,,,,,,,,,,,,,,,,,,,w,1,0.5325088330137078,86.91687208300573,None,None,None,86.91687208300573,None,,,CL479,2022_Feb_02_1239,LexicalDescionTrial,2021.2.3,59.82249183241443,
chow,word,8.11,w,comic sans,1,ComicSans14.jpeg,experimental,A,,,,,0,25,25,13,,,,,,,,,,,,,,,,,,,,,,,w,1,1.041782250002143,87.48483800000395,None,87.48483800000395,None,None,None,,,CL479,2022_Feb_02_1239,LexicalDescionTrial,2021.2.3,59.82249183241443,
daxy,non-word,None,n,georgia,2,Georgia78.jpeg,experimental,A,,,,,0,26,26,77,,,,,,,,,,,,,,,,,,,,,,,n,1,0.6010569169884548,88.56859254100709,None,None,None,88.56859254100709,None,,,CL479,2022_Feb_02_1239,LexicalDescionTrial,2021.2.3,59.82249183241443,
muin,non-word,None,n,georgia,2,Georgia67.jpeg,experimental,A,,,,,0,27,27,66,,,,,,,,,,,,,,,,,,,,,,,n,1,0.7929895420093089,89.19939933301066,None,None,None,89.19939933301066,None,,,CL479,2022_Feb_02_1239,LexicalDescionTrial,2021.2.3,59.82249183241443,
taul,non-word,None,n,comic sans,1,ComicSans57.jpeg,experimental,A,,,,,0,28,28,56,,,,,,,,,,,,,,,,,,,,,,,n,1,0.9447982090059668,90.03418654100096,None,90.03418654100096,None,None,None,,,CL479,2022_Feb_02_1239,LexicalDescionTrial,2021.2.3,59.82249183241443,
mons,non-word,None,n,comic sans,1,ComicSans45.jpeg,experimental,A,,,,,0,29,29,44,,,,,,,,,,,,,,,,,,,,,,,n,1,0.6531376249913592,91.01817033300176,None,91.01817033300176,None,None,None,,,CL479,2022_Feb_02_1239,LexicalDescionTrial,2021.2.3,59.82249183241443,
flea,word,8.144,w,georgia,2,Georgia27.jpeg,experimental,A,,,,,0,30,30,26,,,,,,,,,,,,,,,,,,,,,,,w,1,0.5637655000027735,91.71914079101407,None,None,None,91.71914079101407,None,,,CL479,2022_Feb_02_1239,LexicalDescionTrial,2021.2.3,59.82249183241443,
chep,non-word,None,n,comic sans,1,ComicSans44.jpeg,experimental,A,,,,,0,31,31,43,,,,,,,,,,,,,,,,,,,,,,,n,1,0.7251218750025146,92.31875191601284,None,92.31875191601284,None,None,None,,,CL479,2022_Feb_02_1239,LexicalDescionTrial,2021.2.3,59.82249183241443,
hesk,non-word,None,n,comic sans,1,ComicSans47.jpeg,experimental,A,,,,,0,32,32,46,,,,,,,,,,,,,,,,,,,,,,,n,1,0.7307761669944739,93.08565700000327,None,93.08565700000327,None,None,None,,,CL479,2022_Feb_02_1239,LexicalDescionTrial,2021.2.3,59.82249183241443,
heas,non-word,None,n,georgia,2,Georgia73.jpeg,experimental,A,,,,,0,33,33,72,,,,,,,,,,,,,,,,,,,,,,,n,1,0.5903038329997798,93.85192970800563,None,None,None,93.85192970800563,None,,,CL479,2022_Feb_02_1239,LexicalDescionTrial,2021.2.3,59.82249183241443,
erks,non-word,None,n,comic sans,1,ComicSans49.jpeg,experimental,A,,,,,0,34,34,48,,,,,,,,,,,,,,,,,,,,,,,n,1,0.5903029580076691,94.48467816600169,None,94.48467816600169,None,None,None,,,CL479,2022_Feb_02_1239,LexicalDescionTrial,2021.2.3,59.82249183241443,
woad,non-word,None,n,comic sans,1,ComicSans55.jpeg,experimental,A,,,,,0,35,35,54,,,,,,,,,,,,,,,,,,,,,,,w,0,0.6342214580072323,95.11901941600081,None,95.11901941600081,None,None,None,,,CL479,2022_Feb_02_1239,LexicalDescionTrial,2021.2.3,59.82249183241443,
ebit,non-word,None,n,comic sans,1,ComicSans50.jpeg,experimental,A,,,,,0,36,36,49,,,,,,,,,,,,,,,,,,,,,,,n,1,0.7795180829998571,95.7850282080035,None,95.7850282080035,None,None,None,,,CL479,2022_Feb_02_1239,LexicalDescionTrial,2021.2.3,59.82249183241443,
bulb,word,8.085,w,comic sans,1,ComicSans9.jpeg,experimental,A,,,,,0,37,37,8,,,,,,,,,,,,,,,,,,,,,,,w,1,0.6977882920036791,96.60108845800278,None,96.60108845800278,None,None,None,,,CL479,2022_Feb_02_1239,LexicalDescionTrial,2021.2.3,59.82249183241443,
bore,word,8.188,w,georgia,2,Georgia39.jpeg,experimental,A,,,,,0,38,38,38,,,,,,,,,,,,,,,,,,,,,,,n,0,0.9018620410060976,97.33435029101383,None,None,None,97.33435029101383,None,,,CL479,2022_Feb_02_1239,LexicalDescionTrial,2021.2.3,59.82249183241443,
sore,word,8.118,w,comic sans,1,ComicSans17.jpeg,experimental,A,,,,,0,39,39,16,,,,,,,,,,,,,,,,,,,,,,,w,1,0.6623790419980651,98.26760637501138,None,98.26760637501138,None,None,None,,,CL479,2022_Feb_02_1239,LexicalDescionTrial,2021.2.3,59.82249183241443,
atom,word,8.134,w,georgia,2,Georgia21.jpeg,experimental,A,,,,,0,40,40,20,,,,,,,,,,,,,,,,,,,,,,,w,1,0.7623113339941483,98.96882141601236,None,None,None,98.96882141601236,None,,,CL479,2022_Feb_02_1239,LexicalDescionTrial,2021.2.3,59.82249183241443,
ears,word,8.15,w,georgia,2,Georgia32.jpeg,experimental,A,,,,,0,41,41,31,,,,,,,,,,,,,,,,,,,,,,,w,1,0.7144147090002662,99.76587695800117,None,None,None,99.76587695800117,None,,,CL479,2022_Feb_02_1239,LexicalDescionTrial,2021.2.3,59.82249183241443,
woke,word,8.078,w,comic sans,1,ComicSans4.jpeg,experimental,A,,,,,0,42,42,3,,,,,,,,,,,,,,,,,,,,,,,w,1,0.6312787080096314,100.51905570800591,None,100.51905570800591,None,None,None,,,CL479,2022_Feb_02_1239,LexicalDescionTrial,2021.2.3,59.82249183241443,
poet,word,8.147,w,georgia,2,Georgia31.jpeg,experimental,A,,,,,0,43,43,30,,,,,,,,,,,,,,,,,,,,,,,w,1,0.6302474580006674,101.18476016601198,None,None,None,101.18476016601198,None,,,CL479,2022_Feb_02_1239,LexicalDescionTrial,2021.2.3,59.82249183241443,
rine,non-word,None,n,comic sans,1,ComicSans48.jpeg,experimental,A,,,,,0,44,44,47,,,,,,,,,,,,,,,,,,,,,,,w,0,1.2826535839994904,101.85151533300814,None,101.85151533300814,None,None,None,,,CL479,2022_Feb_02_1239,LexicalDescionTrial,2021.2.3,59.82249183241443,
gips,non-word,None,n,georgia,2,Georgia75.jpeg,experimental,A,,,,,0,45,45,74,,,,,,,,,,,,,,,,,,,,,,,n,1,0.7931101249996573,103.16887433300144,None,None,None,103.16887433300144,None,,,CL479,2022_Feb_02_1239,LexicalDescionTrial,2021.2.3,59.82249183241443,
joet,non-word,None,n,georgia,2,Georgia61.jpeg,experimental,A,,,,,0,46,46,60,,,,,,,,,,,,,,,,,,,,,,,n,1,0.6265379590040538,104.00109770800918,None,None,None,104.00109770800918,None,,,CL479,2022_Feb_02_1239,LexicalDescionTrial,2021.2.3,59.82249183241443,
wald,non-word,None,n,georgia,2,Georgia80.jpeg,experimental,A,,,,,0,47,47,79,,,,,,,,,,,,,,,,,,,,,,,n,1,1.4428381250036182,104.66742729100224,None,None,None,104.66742729100224,None,,,CL479,2022_Feb_02_1239,LexicalDescionTrial,2021.2.3,59.82249183241443,
span,word,8.134,w,georgia,2,Georgia22.jpeg,experimental,A,,,,,0,48,48,21,,,,,,,,,,,,,,,,,,,,,,,w,1,0.9952674999949522,106.15216083300766,None,None,None,106.15216083300766,None,,,CL479,2022_Feb_02_1239,LexicalDescionTrial,2021.2.3,59.82249183241443,
ture,non-word,None,n,comic sans,1,ComicSans46.jpeg,experimental,A,,,,,0,49,49,45,,,,,,,,,,,,,,,,,,,,,,,n,1,0.8216802910028491,107.18553591601085,None,107.18553591601085,None,None,None,,,CL479,2022_Feb_02_1239,LexicalDescionTrial,2021.2.3,59.82249183241443,
peam,non-word,None,n,georgia,2,Georgia64.jpeg,experimental,A,,,,,0,50,50,63,,,,,,,,,,,,,,,,,,,,,,,n,1,1.1892484580021119,108.05249150001328,None,None,None,108.05249150001328,None,,,CL479,2022_Feb_02_1239,LexicalDescionTrial,2021.2.3,59.82249183241443,
dash,word,8.139,w,georgia,2,Georgia23.jpeg,experimental,A,,,,,0,51,51,22,,,,,,,,,,,,,,,,,,,,,,,w,1,0.7058385419950355,109.28536883300694,None,None,None,109.28536883300694,None,,,CL479,2022_Feb_02_1239,LexicalDescionTrial,2021.2.3,59.82249183241443,
juck,non-word,None,n,georgia,2,Georgia72.jpeg,experimental,A,,,,,0,52,52,71,,,,,,,,,,,,,,,,,,,,,,,n,1,1.3410081670008367,110.03373954100243,None,None,None,110.03373954100243,None,,,CL479,2022_Feb_02_1239,LexicalDescionTrial,2021.2.3,59.82249183241443,
prop,word,8.112,w,comic sans,1,ComicSans15.jpeg,experimental,A,,,,,0,53,53,14,,,,,,,,,,,,,,,,,,,,,,,w,1,0.9003376250038855,111.418540166007,None,111.418540166007,None,None,None,,,CL479,2022_Feb_02_1239,LexicalDescionTrial,2021.2.3,59.82249183241443,
bets,word,8.085,w,comic sans,1,ComicSans8.jpeg,experimental,A,,,,,0,54,54,7,,,,,,,,,,,,,,,,,,,,,,,w,1,0.9049442090035882,112.3505511250114,None,112.3505511250114,None,None,None,,,CL479,2022_Feb_02_1239,LexicalDescionTrial,2021.2.3,59.82249183241443,
yell,word,8.108,w,comic sans,1,ComicSans13.jpeg,experimental,A,,,,,0,55,55,12,,,,,,,,,,,,,,,,,,,,,,,w,1,0.7494455000123708,113.30112179100979,None,113.30112179100979,None,None,None,,,CL479,2022_Feb_02_1239,LexicalDescionTrial,2021.2.3,59.82249183241443,
howl,word,8.079,w,comic sans,1,ComicSans6.jpeg,experimental,A,,,,,0,56,56,5,,,,,,,,,,,,,,,,,,,,,,,w,1,0.936340874992311,114.08377887500683,None,114.08377887500683,None,None,None,,,CL479,2022_Feb_02_1239,LexicalDescionTrial,2021.2.3,59.82249183241443,
lerm,non-word,None,n,georgia,2,Georgia74.jpeg,experimental,A,,,,,0,57,57,73,,,,,,,,,,,,,,,,,,,,,,,n,1,0.6804916669934755,115.04959558301198,None,None,None,115.04959558301198,None,,,CL479,2022_Feb_02_1239,LexicalDescionTrial,2021.2.3,59.82249183241443,
fade,word,8.162,w,georgia,2,Georgia33.jpeg,experimental,A,,,,,0,58,58,32,,,,,,,,,,,,,,,,,,,,,,,w,1,0.7342852909932844,115.7665180410113,None,None,None,115.7665180410113,None,,,CL479,2022_Feb_02_1239,LexicalDescionTrial,2021.2.3,59.82249183241443,
atus,non-word,None,n,comic sans,1,ComicSans42.jpeg,experimental,A,,,,,0,59,59,41,,,,,,,,,,,,,,,,,,,,,,,n,1,1.4264450830087299,116.53666141600115,None,116.53666141600115,None,None,None,,,CL479,2022_Feb_02_1239,LexicalDescionTrial,2021.2.3,59.82249183241443,
buwl,non-word,None,n,comic sans,1,ComicSans43.jpeg,experimental,A,,,,,0,60,60,42,,,,,,,,,,,,,,,,,,,,,,,n,1,1.0316828329960117,118.00228337501176,None,118.00228337501176,None,None,None,,,CL479,2022_Feb_02_1239,LexicalDescionTrial,2021.2.3,59.82249183241443,
tent,word,8.067,w,comic sans,1,ComicSans3.jpeg,experimental,A,,,,,0,61,61,2,,,,,,,,,,,,,,,,,,,,,,,w,1,1.0548668340052245,119.0672603330022,None,119.0672603330022,None,None,None,,,CL479,2022_Feb_02_1239,LexicalDescionTrial,2021.2.3,59.82249183241443,
stem,word,8.183,w,georgia,2,Georgia37.jpeg,experimental,A,,,,,0,62,62,36,,,,,,,,,,,,,,,,,,,,,,,w,1,0.7169232500018552,120.1707116250036,None,None,None,120.1707116250036,None,,,CL479,2022_Feb_02_1239,LexicalDescionTrial,2021.2.3,59.82249183241443,
abem,non-word,None,n,comic sans,1,ComicSans41.jpeg,experimental,A,,,,,0,63,63,40,,,,,,,,,,,,,,,,,,,,,,,n,1,0.6306328749924432,120.918259958009,None,120.918259958009,None,None,None,,,CL479,2022_Feb_02_1239,LexicalDescionTrial,2021.2.3,59.82249183241443,
yarl,non-word,None,n,georgia,2,Georgia79.jpeg,experimental,A,,,,,0,64,64,78,,,,,,,,,,,,,,,,,,,,,,,w,0,1.0354887919966131,121.5842605830112,None,None,None,121.5842605830112,None,,,CL479,2022_Feb_02_1239,LexicalDescionTrial,2021.2.3,59.82249183241443,
bean,word,8.182,w,georgia,2,Georgia36.jpeg,experimental,A,,,,,0,65,65,35,,,,,,,,,,,,,,,,,,,,,,,w,1,0.6783444580069045,122.65398329100572,None,None,None,122.65398329100572,None,,,CL479,2022_Feb_02_1239,LexicalDescionTrial,2021.2.3,59.82249183241443,
hers,word,8.142,w,georgia,2,Georgia25.jpeg,experimental,A,,,,,0,66,66,24,,,,,,,,,,,,,,,,,,,,,,,w,1,0.6339420000003884,123.3669860830123,None,None,None,123.3669860830123,None,,,CL479,2022_Feb_02_1239,LexicalDescionTrial,2021.2.3,59.82249183241443,
hail,word,8.079,w,comic sans,1,ComicSans5.jpeg,experimental,A,,,,,0,67,67,4,,,,,,,,,,,,,,,,,,,,,,,w,1,0.6704754590027733,124.0343090830138,None,124.0343090830138,None,None,None,,,CL479,2022_Feb_02_1239,LexicalDescionTrial,2021.2.3,59.82249183241443,
faza,non-word,None,n,comic sans,1,ComicSans51.jpeg,experimental,A,,,,,0,68,68,50,,,,,,,,,,,,,,,,,,,,,,,n,1,0.6815869999991264,124.7526700830058,None,124.7526700830058,None,None,None,,,CL479,2022_Feb_02_1239,LexicalDescionTrial,2021.2.3,59.82249183241443,
hobs,non-word,None,n,georgia,2,Georgia66.jpeg,experimental,A,,,,,0,69,69,65,,,,,,,,,,,,,,,,,,,,,,,w,0,0.7463407080067554,125.46708258301078,None,None,None,125.46708258301078,None,,,CL479,2022_Feb_02_1239,LexicalDescionTrial,2021.2.3,59.82249183241443,
gosh,word,8.054,w,comic sans,1,ComicSans1.jpeg,experimental,A,,,,,0,70,70,0,,,,,,,,,,,,,,,,,,,,,,,w,1,0.8256151250097901,126.25210225000046,None,126.25210225000046,None,None,None,,,CL479,2022_Feb_02_1239,LexicalDescionTrial,2021.2.3,59.82249183241443,
lace,word,8.097,w,comic sans,1,ComicSans11.jpeg,experimental,A,,,,,0,71,71,10,,,,,,,,,,,,,,,,,,,,,,,w,1,0.7023839579924243,127.11785404100374,None,127.11785404100374,None,None,None,,,CL479,2022_Feb_02_1239,LexicalDescionTrial,2021.2.3,59.82249183241443,
loth,non-word,None,n,comic sans,1,ComicSans56.jpeg,experimental,A,,,,,0,72,72,55,,,,,,,,,,,,,,,,,,,,,,,n,1,0.835267542002839,127.85141179100901,None,127.85141179100901,None,None,None,,,CL479,2022_Feb_02_1239,LexicalDescionTrial,2021.2.3,59.82249183241443,
gour,non-word,None,n,georgia,2,Georgia71.jpeg,experimental,A,,,,,0,73,73,70,,,,,,,,,,,,,,,,,,,,,,,n,1,1.2702938339934917,128.71752445801394,None,None,None,128.71752445801394,None,,,CL479,2022_Feb_02_1239,LexicalDescionTrial,2021.2.3,59.82249183241443,
soan,non-word,None,n,georgia,2,Georgia62.jpeg,experimental,A,,,,,0,74,74,61,,,,,,,,,,,,,,,,,,,,,,,n,1,1.0469740410044324,130.03551816601248,None,None,None,130.03551816601248,None,,,CL479,2022_Feb_02_1239,LexicalDescionTrial,2021.2.3,59.82249183241443,
sail,word,8.175,w,georgia,2,Georgia35.jpeg,experimental,A,,,,,0,75,75,34,,,,,,,,,,,,,,,,,,,,,,,w,1,1.0311330830008956,131.117131291001,None,None,None,131.117131291001,None,,,CL479,2022_Feb_02_1239,LexicalDescionTrial,2021.2.3,59.82249183241443,
nets,word,8.142,w,georgia,2,Georgia26.jpeg,experimental,A,,,,,0,76,76,25,,,,,,,,,,,,,,,,,,,,,,,w,1,0.7206612500012852,132.18550312500156,None,None,None,132.18550312500156,None,,,CL479,2022_Feb_02_1239,LexicalDescionTrial,2021.2.3,59.82249183241443,
coil,word,8.127,w,comic sans,1,ComicSans20.jpeg,experimental,A,,,,,0,77,77,19,,,,,,,,,,,,,,,,,,,,,,,w,1,0.7215412499936065,132.95140062501014,None,132.95140062501014,None,None,None,,,CL479,2022_Feb_02_1239,LexicalDescionTrial,2021.2.3,59.82249183241443,
plaw,non-word,None,n,comic sans,1,ComicSans52.jpeg,experimental,A,,,,,0,78,78,51,,,,,,,,,,,,,,,,,,,,,,,n,1,1.5457483749923995,133.71804550000525,None,133.71804550000525,None,None,None,,,CL479,2022_Feb_02_1239,LexicalDescionTrial,2021.2.3,59.82249183241443,
hond,non-word,None,n,comic sans,1,ComicSans53.jpeg,experimental,A,,,,,0,79,79,52,,,,,,,,,,,,,,,,,,,,,,,n,1,1.20725045799918,135.3022001250065,None,135.3022001250065,None,None,None,,,CL479,2022_Feb_02_1239,LexicalDescionTrial,2021.2.3,59.82249183241443,
,,,,,,,,,,,,,,,,,,,,,,,,,,,,,,,,,,,,,,,,,,,,,,,,136.5369810830016,None,,,,,,
