Stimulus,Type,log_freq_HAL,correct_response,the_font,the_font2,the_jpeg,phase,set,practicetrials.thisRepN,practicetrials.thisTrialN,practicetrials.thisN,practicetrials.thisIndex,trials.thisRepN,trials.thisTrialN,trials.thisN,trials.thisIndex,which_spreadsheet,intro_text.started,intro_text.stopped,key_resp_4.keys,key_resp_4.rt,key_resp_4.started,key_resp_4.stopped,image_practice.started,image_practice.stopped,response_practice.keys,response_practice.corr,response_practice.started,response_practice.stopped,feedback_text.started,feedback_text.stopped,response_practice.rt,text_3.started,text_3.stopped,key_resp_3.keys,key_resp_3.rt,key_resp_3.started,key_resp_3.stopped,key_resp.keys,key_resp.corr,key_resp.rt,key_resp.started,key_resp.stopped,image_comic.started,image_comic.stopped,image_georgia.started,image_georgia.stopped,text_end.started,text_end.stopped,participant,date,expName,psychopyVersion,frameRate,
,,,,,,,,,,,,,,,,,setA.xlsx,20.78591574999882,None,space,10.446691125000143,20.78591574999882,None,,,,,,,,,,,,,,,,,,,,,,,,,,,DA682,2022_Jan_31_1313,LexicalDescionTrial,2021.2.3,59.9629280392756,
fizz,word,na,w,georgia,2,practice1.jpeg,practice,practice,0,0,0,0,,,,,,,,,,,,31.30429295799877,None,None,0,31.30429295799877,None,34.312907416999224,None,,,,,,,,,,,,,,,,,,,DA682,2022_Jan_31_1313,LexicalDescionTrial,2021.2.3,59.9629280392756,
nars,non-word,na,n,georgia,2,practice8.jpeg,practice,practice,0,1,1,7,,,,,,,,,,,,37.31762895799875,None,n,1,37.31762895799875,None,39.51970920799977,None,2.1675281660009205,,,,,,,,,,,,,,,,,,DA682,2022_Jan_31_1313,LexicalDescionTrial,2021.2.3,59.9629280392756,
darm,non-word,na,n,georgia,2,practice7.jpeg,practice,practice,0,2,2,6,,,,,,,,,,,,40.53114970800016,None,n,1,40.53114970800016,None,41.894395541999984,None,1.3312415000000328,,,,,,,,,,,,,,,,,,DA682,2022_Jan_31_1313,LexicalDescionTrial,2021.2.3,59.9629280392756,
pond,word,na,w,comic sans,1,practice5.jpeg,practice,practice,0,3,3,4,,,,,,,,,,,,42.897485499999675,None,w,1,42.897485499999675,None,44.26109137499952,None,1.332189456999913,,,,,,,,,,,,,,,,,,DA682,2022_Jan_31_1313,LexicalDescionTrial,2021.2.3,59.9629280392756,
mitt,word,na,w,georgia,2,practice3.jpeg,practice,practice,0,4,4,2,,,,,,,,,,,,45.26396204199955,None,w,1,45.26396204199955,None,47.27791933299886,None,1.9963665409995883,,,,,,,,,,,,,,,,,,DA682,2022_Jan_31_1313,LexicalDescionTrial,2021.2.3,59.9629280392756,
larp,non-word,na,n,comic sans,1,practice11.jpeg,practice,practice,0,5,5,10,,,,,,,,,,,,48.280469707999146,None,n,1,48.280469707999146,None,49.26121199999943,None,0.9538393740003812,,,,,,,,,,,,,,,,,,DA682,2022_Jan_31_1313,LexicalDescionTrial,2021.2.3,59.9629280392756,
gnaw,word,na,w,comic sans,1,practice4.jpeg,practice,practice,0,6,6,3,,,,,,,,,,,,50.26471404199947,None,w,1,50.26471404199947,None,51.361227166999015,None,1.067711623998548,,,,,,,,,,,,,,,,,,DA682,2022_Jan_31_1313,LexicalDescionTrial,2021.2.3,59.9629280392756,
slim,word,na,w,comic sans,1,practice6.jpeg,practice,practice,0,7,7,5,,,,,,,,,,,,52.36481595799887,None,w,1,52.36481595799887,None,53.244508582998606,None,0.8557812079998257,,,,,,,,,,,,,,,,,,DA682,2022_Jan_31_1313,LexicalDescionTrial,2021.2.3,59.9629280392756,
ball,word,na,w,georgia,2,practice2.jpeg,practice,practice,0,8,8,1,,,,,,,,,,,,54.260324999999284,None,w,1,54.260324999999284,None,55.011433541998485,None,0.7328379579994362,,,,,,,,,,,,,,,,,,DA682,2022_Jan_31_1313,LexicalDescionTrial,2021.2.3,59.9629280392756,
pove,non-word,na,n,comic sans,1,practice12.jpeg,practice,practice,0,9,9,11,,,,,,,,,,,,56.01367329200002,None,n,1,56.01367329200002,None,57.227985042,None,1.1823919159996876,,,,,,,,,,,,,,,,,,DA682,2022_Jan_31_1313,LexicalDescionTrial,2021.2.3,59.9629280392756,
faud,non-word,na,n,georgia,2,practice9.jpeg,practice,practice,0,10,10,8,,,,,,,,,,,,58.23068066699852,None,n,1,58.23068066699852,None,59.5113532919986,None,1.2639127500005998,,,,,,,,,,,,,,,,,,DA682,2022_Jan_31_1313,LexicalDescionTrial,2021.2.3,59.9629280392756,
kail,non-word,na,n,comic sans,1,practice10.jpeg,practice,practice,0,11,11,9,,,,,,,,,,,,60.515164374999586,None,n,1,60.515164374999586,None,61.39472045799994,None,0.85446812400005,,,,,,,,,,,,,,,,,,DA682,2022_Jan_31_1313,LexicalDescionTrial,2021.2.3,59.9629280392756,
,,,,,,,,,,,,,,,,,,,,,,,,,,,,,,,,,62.39467712499936,None,space,1.673461624999618,62.39467712499936,None,,,,,,,,,,,,DA682,2022_Jan_31_1313,LexicalDescionTrial,2021.2.3,59.9629280392756,
atus,non-word,None,n,comic sans,1,ComicSans42.jpeg,experimental,A,,,,,0,0,0,41,,,,,,,,,,,,,,,,,,,,,,,n,1,1.0865507910002634,64.14895774999968,None,64.14895774999968,None,None,None,,,DA682,2022_Jan_31_1313,LexicalDescionTrial,2021.2.3,59.9629280392756,
daxy,non-word,None,n,georgia,2,Georgia78.jpeg,experimental,A,,,,,0,1,1,77,,,,,,,,,,,,,,,,,,,,,,,n,1,0.7865825819990278,65.27816883299965,None,None,None,65.27816883299965,None,,,DA682,2022_Jan_31_1313,LexicalDescionTrial,2021.2.3,59.9629280392756,
loth,non-word,None,n,comic sans,1,ComicSans56.jpeg,experimental,A,,,,,0,2,2,55,,,,,,,,,,,,,,,,,,,,,,,n,1,1.4094797500001732,66.10996479200003,None,66.10996479200003,None,None,None,,,DA682,2022_Jan_31_1313,LexicalDescionTrial,2021.2.3,59.9629280392756,
woad,non-word,None,n,comic sans,1,ComicSans55.jpeg,experimental,A,,,,,0,3,3,54,,,,,,,,,,,,,,,,,,,,,,,n,1,1.3067382910012384,67.55921612499878,None,67.55921612499878,None,None,None,,,DA682,2022_Jan_31_1313,LexicalDescionTrial,2021.2.3,59.9629280392756,
spew,word,8.117,w,comic sans,1,ComicSans16.jpeg,experimental,A,,,,,0,4,4,15,,,,,,,,,,,,,,,,,,,,,,,w,1,0.8769622910003818,68.90931954199914,None,68.90931954199914,None,None,None,,,DA682,2022_Jan_31_1313,LexicalDescionTrial,2021.2.3,59.9629280392756,
jets,word,8.081,w,comic sans,1,ComicSans7.jpeg,experimental,A,,,,,0,5,5,6,,,,,,,,,,,,,,,,,,,,,,,w,1,0.8233435000001919,69.82675241699872,None,69.82675241699872,None,None,None,,,DA682,2022_Jan_31_1313,LexicalDescionTrial,2021.2.3,59.9629280392756,
fade,word,8.162,w,georgia,2,Georgia33.jpeg,experimental,A,,,,,0,6,6,32,,,,,,,,,,,,,,,,,,,,,,,w,1,0.6786161660002108,70.69375124999897,None,None,None,70.69375124999897,None,,,DA682,2022_Jan_31_1313,LexicalDescionTrial,2021.2.3,59.9629280392756,
bulb,word,8.085,w,comic sans,1,ComicSans9.jpeg,experimental,A,,,,,0,7,7,8,,,,,,,,,,,,,,,,,,,,,,,w,1,0.6247784160004812,71.40963383300004,None,71.40963383300004,None,None,None,,,DA682,2022_Jan_31_1313,LexicalDescionTrial,2021.2.3,59.9629280392756,
lerm,non-word,None,n,georgia,2,Georgia74.jpeg,experimental,A,,,,,0,8,8,73,,,,,,,,,,,,,,,,,,,,,,,n,1,0.77082024900119,72.07728383299946,None,None,None,72.07728383299946,None,,,DA682,2022_Jan_31_1313,LexicalDescionTrial,2021.2.3,59.9629280392756,
memo,word,8.108,w,comic sans,1,ComicSans12.jpeg,experimental,A,,,,,0,9,9,11,,,,,,,,,,,,,,,,,,,,,,,w,1,0.6986057499998424,72.89340095799889,None,72.89340095799889,None,None,None,,,DA682,2022_Jan_31_1313,LexicalDescionTrial,2021.2.3,59.9629280392756,
dash,word,8.139,w,georgia,2,Georgia23.jpeg,experimental,A,,,,,0,10,10,22,,,,,,,,,,,,,,,,,,,,,,,w,1,1.1280024579991732,73.62569291699947,None,None,None,73.62569291699947,None,,,DA682,2022_Jan_31_1313,LexicalDescionTrial,2021.2.3,59.9629280392756,
cial,non-word,None,n,georgia,2,Georgia77.jpeg,experimental,A,,,,,0,11,11,76,,,,,,,,,,,,,,,,,,,,,,,n,1,0.77069420800035,74.79390058299941,None,None,None,74.79390058299941,None,,,DA682,2022_Jan_31_1313,LexicalDescionTrial,2021.2.3,59.9629280392756,
bets,word,8.085,w,comic sans,1,ComicSans8.jpeg,experimental,A,,,,,0,12,12,7,,,,,,,,,,,,,,,,,,,,,,,w,1,0.7203707080007007,75.6104930829988,None,75.6104930829988,None,None,None,,,DA682,2022_Jan_31_1313,LexicalDescionTrial,2021.2.3,59.9629280392756,
erks,non-word,None,n,comic sans,1,ComicSans49.jpeg,experimental,A,,,,,0,13,13,48,,,,,,,,,,,,,,,,,,,,,,,n,1,0.8513447069999529,76.37793170799887,None,76.37793170799887,None,None,None,,,DA682,2022_Jan_31_1313,LexicalDescionTrial,2021.2.3,59.9629280392756,
mons,non-word,None,n,comic sans,1,ComicSans45.jpeg,experimental,A,,,,,0,14,14,44,,,,,,,,,,,,,,,,,,,,,,,n,1,1.3175218329997733,77.25986033299887,None,77.25986033299887,None,None,None,,,DA682,2022_Jan_31_1313,LexicalDescionTrial,2021.2.3,59.9629280392756,
oath,word,8.187,w,georgia,2,Georgia38.jpeg,experimental,A,,,,,0,15,15,37,,,,,,,,,,,,,,,,,,,,,,,w,1,0.7967645819990139,78.60912758299855,None,None,None,78.60912758299855,None,,,DA682,2022_Jan_31_1313,LexicalDescionTrial,2021.2.3,59.9629280392756,
rine,non-word,None,n,comic sans,1,ComicSans48.jpeg,experimental,A,,,,,0,16,16,47,,,,,,,,,,,,,,,,,,,,,,,w,0,2.0113122499988094,79.44245383299858,None,79.44245383299858,None,None,None,,,DA682,2022_Jan_31_1313,LexicalDescionTrial,2021.2.3,59.9629280392756,
hilp,non-word,None,n,comic sans,1,ComicSans59.jpeg,experimental,A,,,,,0,17,17,58,,,,,,,,,,,,,,,,,,,,,,,n,1,0.700676915999793,81.49518645799981,None,81.49518645799981,None,None,None,,,DA682,2022_Jan_31_1313,LexicalDescionTrial,2021.2.3,59.9629280392756,
watt,word,8.145,w,georgia,2,Georgia30.jpeg,experimental,A,,,,,0,18,18,29,,,,,,,,,,,,,,,,,,,,,,,w,1,0.8412177490008617,82.22630395799933,None,None,None,82.22630395799933,None,,,DA682,2022_Jan_31_1313,LexicalDescionTrial,2021.2.3,59.9629280392756,
voar,non-word,None,n,georgia,2,Georgia70.jpeg,experimental,A,,,,,0,19,19,69,,,,,,,,,,,,,,,,,,,,,,,n,1,1.138275123999847,83.10978508299922,None,None,None,83.10978508299922,None,,,DA682,2022_Jan_31_1313,LexicalDescionTrial,2021.2.3,59.9629280392756,
bean,word,8.182,w,georgia,2,Georgia36.jpeg,experimental,A,,,,,0,20,20,35,,,,,,,,,,,,,,,,,,,,,,,w,1,0.7589266240011057,84.29286633299853,None,None,None,84.29286633299853,None,,,DA682,2022_Jan_31_1313,LexicalDescionTrial,2021.2.3,59.9629280392756,
hail,word,8.079,w,comic sans,1,ComicSans5.jpeg,experimental,A,,,,,0,21,21,4,,,,,,,,,,,,,,,,,,,,,,,w,1,1.3270321660002082,85.09246087499923,None,85.09246087499923,None,None,None,,,DA682,2022_Jan_31_1313,LexicalDescionTrial,2021.2.3,59.9629280392756,
atom,word,8.134,w,georgia,2,Georgia21.jpeg,experimental,A,,,,,0,22,22,20,,,,,,,,,,,,,,,,,,,,,,,w,1,1.0177228740012652,86.4611422500002,None,None,None,86.4611422500002,None,,,DA682,2022_Jan_31_1313,LexicalDescionTrial,2021.2.3,59.9629280392756,
sail,word,8.175,w,georgia,2,Georgia35.jpeg,experimental,A,,,,,0,23,23,34,,,,,,,,,,,,,,,,,,,,,,,w,1,1.0098749159988074,87.52653320799982,None,None,None,87.52653320799982,None,,,DA682,2022_Jan_31_1313,LexicalDescionTrial,2021.2.3,59.9629280392756,
hond,non-word,None,n,comic sans,1,ComicSans53.jpeg,experimental,A,,,,,0,24,24,52,,,,,,,,,,,,,,,,,,,,,,,n,1,0.7285947910004325,88.57830720799939,None,88.57830720799939,None,None,None,,,DA682,2022_Jan_31_1313,LexicalDescionTrial,2021.2.3,59.9629280392756,
cone,word,8.72,w,georgia,2,Georgia34.jpeg,experimental,A,,,,,0,25,25,33,,,,,,,,,,,,,,,,,,,,,,,w,1,0.937039623999226,89.34256833299878,None,None,None,89.34256833299878,None,,,DA682,2022_Jan_31_1313,LexicalDescionTrial,2021.2.3,59.9629280392756,
tray,word,8.126,w,comic sans,1,ComicSans19.jpeg,experimental,A,,,,,0,26,26,18,,,,,,,,,,,,,,,,,,,,,,,w,1,0.734457458000179,90.32608370799971,None,90.32608370799971,None,None,None,,,DA682,2022_Jan_31_1313,LexicalDescionTrial,2021.2.3,59.9629280392756,
span,word,8.134,w,georgia,2,Georgia22.jpeg,experimental,A,,,,,0,27,27,21,,,,,,,,,,,,,,,,,,,,,,,w,1,2.174432916001024,91.09275954199984,None,None,None,91.09275954199984,None,,,DA682,2022_Jan_31_1313,LexicalDescionTrial,2021.2.3,59.9629280392756,
peam,non-word,None,n,georgia,2,Georgia64.jpeg,experimental,A,,,,,0,28,28,63,,,,,,,,,,,,,,,,,,,,,,,n,1,0.7433892909994029,93.31044508299965,None,None,None,93.31044508299965,None,,,DA682,2022_Jan_31_1313,LexicalDescionTrial,2021.2.3,59.9629280392756,
gour,non-word,None,n,georgia,2,Georgia71.jpeg,experimental,A,,,,,0,29,29,70,,,,,,,,,,,,,,,,,,,,,,,n,1,0.7028795829992305,94.09408841699951,None,None,None,94.09408841699951,None,,,DA682,2022_Jan_31_1313,LexicalDescionTrial,2021.2.3,59.9629280392756,
abem,non-word,None,n,comic sans,1,ComicSans41.jpeg,experimental,A,,,,,0,30,30,40,,,,,,,,,,,,,,,,,,,,,,,n,1,0.6460118320010224,94.84234079199996,None,94.84234079199996,None,None,None,,,DA682,2022_Jan_31_1313,LexicalDescionTrial,2021.2.3,59.9629280392756,
tent,word,8.067,w,comic sans,1,ComicSans3.jpeg,experimental,A,,,,,0,31,31,2,,,,,,,,,,,,,,,,,,,,,,,w,1,0.6711846239995793,95.52591120800025,None,95.52591120800025,None,None,None,,,DA682,2022_Jan_31_1313,LexicalDescionTrial,2021.2.3,59.9629280392756,
joet,non-word,None,n,georgia,2,Georgia61.jpeg,experimental,A,,,,,0,32,32,60,,,,,,,,,,,,,,,,,,,,,,,n,1,0.7584811249998893,96.24179045799974,None,None,None,96.24179045799974,None,,,DA682,2022_Jan_31_1313,LexicalDescionTrial,2021.2.3,59.9629280392756,
wald,non-word,None,n,georgia,2,Georgia80.jpeg,experimental,A,,,,,0,33,33,79,,,,,,,,,,,,,,,,,,,,,,,n,1,0.6988086250003107,97.04404925000017,None,None,None,97.04404925000017,None,,,DA682,2022_Jan_31_1313,LexicalDescionTrial,2021.2.3,59.9629280392756,
runk,non-word,None,n,comic sans,1,ComicSans54.jpeg,experimental,A,,,,,0,34,34,53,,,,,,,,,,,,,,,,,,,,,,,n,1,1.220977832999779,97.7775173329992,None,97.7775173329992,None,None,None,,,DA682,2022_Jan_31_1313,LexicalDescionTrial,2021.2.3,59.9629280392756,
lamb,word,8.144,w,georgia,2,Georgia29.jpeg,experimental,A,,,,,0,35,35,28,,,,,,,,,,,,,,,,,,,,,,,w,1,0.5921775410006376,99.04395233299874,None,None,None,99.04395233299874,None,,,DA682,2022_Jan_31_1313,LexicalDescionTrial,2021.2.3,59.9629280392756,
mist,word,8.091,w,comic sans,1,ComicSans10.jpeg,experimental,A,,,,,0,36,36,9,,,,,,,,,,,,,,,,,,,,,,,w,1,0.6582079990002967,99.67537449999872,None,99.67537449999872,None,None,None,,,DA682,2022_Jan_31_1313,LexicalDescionTrial,2021.2.3,59.9629280392756,
vekd,non-word,None,n,georgia,2,Georgia76.jpeg,experimental,A,,,,,0,37,37,75,,,,,,,,,,,,,,,,,,,,,,,n,1,0.6219759989999147,100.3771765829988,None,None,None,100.3771765829988,None,,,DA682,2022_Jan_31_1313,LexicalDescionTrial,2021.2.3,59.9629280392756,
taul,non-word,None,n,comic sans,1,ComicSans57.jpeg,experimental,A,,,,,0,38,38,56,,,,,,,,,,,,,,,,,,,,,,,n,1,0.6370132070005639,101.04367620799894,None,101.04367620799894,None,None,None,,,DA682,2022_Jan_31_1313,LexicalDescionTrial,2021.2.3,59.9629280392756,
prop,word,8.112,w,comic sans,1,ComicSans15.jpeg,experimental,A,,,,,0,39,39,14,,,,,,,,,,,,,,,,,,,,,,,w,1,0.6645286660004786,101.72535941699971,None,101.72535941699971,None,None,None,,,DA682,2022_Jan_31_1313,LexicalDescionTrial,2021.2.3,59.9629280392756,
chep,non-word,None,n,comic sans,1,ComicSans44.jpeg,experimental,A,,,,,0,40,40,43,,,,,,,,,,,,,,,,,,,,,,,n,1,0.8942292069987161,102.42546745799882,None,102.42546745799882,None,None,None,,,DA682,2022_Jan_31_1313,LexicalDescionTrial,2021.2.3,59.9629280392756,
soda,word,8.122,w,comic sans,1,ComicSans18.jpeg,experimental,A,,,,,0,41,41,17,,,,,,,,,,,,,,,,,,,,,,,w,1,0.6309457079987624,103.35979649999899,None,103.35979649999899,None,None,None,,,DA682,2022_Jan_31_1313,LexicalDescionTrial,2021.2.3,59.9629280392756,
gelp,non-word,None,n,comic sans,1,ComicSans58.jpeg,experimental,A,,,,,0,42,42,57,,,,,,,,,,,,,,,,,,,,,,,n,1,0.7678398329990159,104.02797404199919,None,104.02797404199919,None,None,None,,,DA682,2022_Jan_31_1313,LexicalDescionTrial,2021.2.3,59.9629280392756,
stem,word,8.183,w,georgia,2,Georgia37.jpeg,experimental,A,,,,,0,43,43,36,,,,,,,,,,,,,,,,,,,,,,,n,0,1.8682968749999418,104.82624037499954,None,None,None,104.82624037499954,None,,,DA682,2022_Jan_31_1313,LexicalDescionTrial,2021.2.3,59.9629280392756,
faza,non-word,None,n,comic sans,1,ComicSans51.jpeg,experimental,A,,,,,0,44,44,50,,,,,,,,,,,,,,,,,,,,,,,n,1,0.7175122080006986,106.72622041700015,None,106.72622041700015,None,None,None,,,DA682,2022_Jan_31_1313,LexicalDescionTrial,2021.2.3,59.9629280392756,
hers,word,8.142,w,georgia,2,Georgia25.jpeg,experimental,A,,,,,0,45,45,24,,,,,,,,,,,,,,,,,,,,,,,w,1,0.7520787909998035,107.47726458299985,None,None,None,107.47726458299985,None,,,DA682,2022_Jan_31_1313,LexicalDescionTrial,2021.2.3,59.9629280392756,
powl,non-word,None,n,comic sans,1,ComicSans60.jpeg,experimental,A,,,,,0,46,46,59,,,,,,,,,,,,,,,,,,,,,,,n,1,0.9898960829996213,108.2611311669989,None,108.2611311669989,None,None,None,,,DA682,2022_Jan_31_1313,LexicalDescionTrial,2021.2.3,59.9629280392756,
coil,word,8.127,w,comic sans,1,ComicSans20.jpeg,experimental,A,,,,,0,47,47,19,,,,,,,,,,,,,,,,,,,,,,,w,1,0.7734347490004438,109.29201266699965,None,109.29201266699965,None,None,None,,,DA682,2022_Jan_31_1313,LexicalDescionTrial,2021.2.3,59.9629280392756,
juck,non-word,None,n,georgia,2,Georgia72.jpeg,experimental,A,,,,,0,48,48,71,,,,,,,,,,,,,,,,,,,,,,,n,1,0.8373179160007567,110.10973795799873,None,None,None,110.10973795799873,None,,,DA682,2022_Jan_31_1313,LexicalDescionTrial,2021.2.3,59.9629280392756,
ears,word,8.15,w,georgia,2,Georgia32.jpeg,experimental,A,,,,,0,49,49,31,,,,,,,,,,,,,,,,,,,,,,,w,1,0.5381888749998325,110.99471891699977,None,None,None,110.99471891699977,None,,,DA682,2022_Jan_31_1313,LexicalDescionTrial,2021.2.3,59.9629280392756,
soan,non-word,None,n,georgia,2,Georgia62.jpeg,experimental,A,,,,,0,50,50,61,,,,,,,,,,,,,,,,,,,,,,,n,1,0.6171875,111.57604625000022,None,None,None,111.57604625000022,None,,,DA682,2022_Jan_31_1313,LexicalDescionTrial,2021.2.3,59.9629280392756,
plaw,non-word,None,n,comic sans,1,ComicSans52.jpeg,experimental,A,,,,,0,51,51,51,,,,,,,,,,,,,,,,,,,,,,,n,1,0.7574536240008456,112.22784541699912,None,112.22784541699912,None,None,None,,,DA682,2022_Jan_31_1313,LexicalDescionTrial,2021.2.3,59.9629280392756,
gosh,word,8.054,w,comic sans,1,ComicSans1.jpeg,experimental,A,,,,,0,52,52,0,,,,,,,,,,,,,,,,,,,,,,,w,1,0.6070257909996144,113.02690762499878,None,113.02690762499878,None,None,None,,,DA682,2022_Jan_31_1313,LexicalDescionTrial,2021.2.3,59.9629280392756,
yarl,non-word,None,n,georgia,2,Georgia79.jpeg,experimental,A,,,,,0,53,53,78,,,,,,,,,,,,,,,,,,,,,,,n,1,0.5616557499997725,113.67705391699928,None,None,None,113.67705391699928,None,,,DA682,2022_Jan_31_1313,LexicalDescionTrial,2021.2.3,59.9629280392756,
chow,word,8.11,w,comic sans,1,ComicSans14.jpeg,experimental,A,,,,,0,54,54,13,,,,,,,,,,,,,,,,,,,,,,,w,1,0.684174248999625,114.27683170799901,None,114.27683170799901,None,None,None,,,DA682,2022_Jan_31_1313,LexicalDescionTrial,2021.2.3,59.9629280392756,
tave,non-word,None,n,georgia,2,Georgia65.jpeg,experimental,A,,,,,0,55,55,64,,,,,,,,,,,,,,,,,,,,,,,n,1,0.5993617909989553,114.99295758299922,None,None,None,114.99295758299922,None,,,DA682,2022_Jan_31_1313,LexicalDescionTrial,2021.2.3,59.9629280392756,
buwl,non-word,None,n,comic sans,1,ComicSans43.jpeg,experimental,A,,,,,0,56,56,42,,,,,,,,,,,,,,,,,,,,,,,n,1,0.5755372069997975,115.62790558300003,None,115.62790558300003,None,None,None,,,DA682,2022_Jan_31_1313,LexicalDescionTrial,2021.2.3,59.9629280392756,
muin,non-word,None,n,georgia,2,Georgia67.jpeg,experimental,A,,,,,0,57,57,66,,,,,,,,,,,,,,,,,,,,,,,n,1,0.5534251660010341,116.24470783299876,None,None,None,116.24470783299876,None,,,DA682,2022_Jan_31_1313,LexicalDescionTrial,2021.2.3,59.9629280392756,
aged,word,8.142,w,georgia,2,Georgia24.jpeg,experimental,A,,,,,0,58,58,23,,,,,,,,,,,,,,,,,,,,,,,w,1,0.6165692070007935,116.84423108299961,None,None,None,116.84423108299961,None,,,DA682,2022_Jan_31_1313,LexicalDescionTrial,2021.2.3,59.9629280392756,
lace,word,8.097,w,comic sans,1,ComicSans11.jpeg,experimental,A,,,,,0,59,59,10,,,,,,,,,,,,,,,,,,,,,,,w,1,0.7881965830001718,117.4928303329998,None,117.4928303329998,None,None,None,,,DA682,2022_Jan_31_1313,LexicalDescionTrial,2021.2.3,59.9629280392756,
heas,non-word,None,n,georgia,2,Georgia73.jpeg,experimental,A,,,,,0,60,60,72,,,,,,,,,,,,,,,,,,,,,,,n,1,0.6401687500001572,118.3261412920001,None,None,None,118.3261412920001,None,,,DA682,2022_Jan_31_1313,LexicalDescionTrial,2021.2.3,59.9629280392756,
nets,word,8.142,w,georgia,2,Georgia26.jpeg,experimental,A,,,,,0,61,61,25,,,,,,,,,,,,,,,,,,,,,,,w,1,0.7251033319989801,119.00926799999979,None,None,None,119.00926799999979,None,,,DA682,2022_Jan_31_1313,LexicalDescionTrial,2021.2.3,59.9629280392756,
gips,non-word,None,n,georgia,2,Georgia75.jpeg,experimental,A,,,,,0,62,62,74,,,,,,,,,,,,,,,,,,,,,,,n,1,0.6500000830001227,119.77689291699971,None,None,None,119.77689291699971,None,,,DA682,2022_Jan_31_1313,LexicalDescionTrial,2021.2.3,59.9629280392756,
hesk,non-word,None,n,comic sans,1,ComicSans47.jpeg,experimental,A,,,,,0,63,63,46,,,,,,,,,,,,,,,,,,,,,,,n,1,1.2601760830002604,120.45953341699897,None,120.45953341699897,None,None,None,,,DA682,2022_Jan_31_1313,LexicalDescionTrial,2021.2.3,59.9629280392756,
sore,word,8.118,w,comic sans,1,ComicSans17.jpeg,experimental,A,,,,,0,64,64,16,,,,,,,,,,,,,,,,,,,,,,,w,1,0.6074381660000654,121.76086020799994,None,121.76086020799994,None,None,None,,,DA682,2022_Jan_31_1313,LexicalDescionTrial,2021.2.3,59.9629280392756,
flea,word,8.144,w,georgia,2,Georgia27.jpeg,experimental,A,,,,,0,65,65,26,,,,,,,,,,,,,,,,,,,,,,,w,1,0.7915131249992555,122.40960404199905,None,None,None,122.40960404199905,None,,,DA682,2022_Jan_31_1313,LexicalDescionTrial,2021.2.3,59.9629280392756,
flut,non-word,None,n,georgia,2,Georgia69.jpeg,experimental,A,,,,,0,66,66,68,,,,,,,,,,,,,,,,,,,,,,,n,1,0.7509409569993295,123.24487566700009,None,None,None,123.24487566700009,None,,,DA682,2022_Jan_31_1313,LexicalDescionTrial,2021.2.3,59.9629280392756,
babe,word,8.059,w,comic sans,1,ComicSans2.jpeg,experimental,A,,,,,0,67,67,1,,,,,,,,,,,,,,,,,,,,,,,w,1,0.6071005829999194,124.02660670799924,None,124.02660670799924,None,None,None,,,DA682,2022_Jan_31_1313,LexicalDescionTrial,2021.2.3,59.9629280392756,
vire,non-word,None,n,georgia,2,Georgia68.jpeg,experimental,A,,,,,0,68,68,67,,,,,,,,,,,,,,,,,,,,,,,n,1,0.793169291000595,124.67550262499935,None,None,None,124.67550262499935,None,,,DA682,2022_Jan_31_1313,LexicalDescionTrial,2021.2.3,59.9629280392756,
bore,word,8.188,w,georgia,2,Georgia39.jpeg,experimental,A,,,,,0,69,69,38,,,,,,,,,,,,,,,,,,,,,,,w,1,0.6701244579999184,125.50922470799924,None,None,None,125.50922470799924,None,,,DA682,2022_Jan_31_1313,LexicalDescionTrial,2021.2.3,59.9629280392756,
hawk,word,8.188,w,georgia,2,Georgia40.jpeg,experimental,A,,,,,0,70,70,39,,,,,,,,,,,,,,,,,,,,,,,w,1,0.8701202499996725,126.21054637499947,None,None,None,126.21054637499947,None,,,DA682,2022_Jan_31_1313,LexicalDescionTrial,2021.2.3,59.9629280392756,
ebit,non-word,None,n,comic sans,1,ComicSans50.jpeg,experimental,A,,,,,0,71,71,49,,,,,,,,,,,,,,,,,,,,,,,n,1,0.6469566240011773,127.12785670799894,None,127.12785670799894,None,None,None,,,DA682,2022_Jan_31_1313,LexicalDescionTrial,2021.2.3,59.9629280392756,
keen,word,8.144,w,georgia,2,Georgia28.jpeg,experimental,A,,,,,0,72,72,27,,,,,,,,,,,,,,,,,,,,,,,w,1,0.6109899989987753,127.80799116699927,None,None,None,127.80799116699927,None,,,DA682,2022_Jan_31_1313,LexicalDescionTrial,2021.2.3,59.9629280392756,
woke,word,8.078,w,comic sans,1,ComicSans4.jpeg,experimental,A,,,,,0,73,73,3,,,,,,,,,,,,,,,,,,,,,,,w,1,0.6711648740001692,128.4592948749996,None,128.4592948749996,None,None,None,,,DA682,2022_Jan_31_1313,LexicalDescionTrial,2021.2.3,59.9629280392756,
howl,word,8.079,w,comic sans,1,ComicSans6.jpeg,experimental,A,,,,,0,74,74,5,,,,,,,,,,,,,,,,,,,,,,,w,1,0.6995231660002901,129.17675079199944,None,129.17675079199944,None,None,None,,,DA682,2022_Jan_31_1313,LexicalDescionTrial,2021.2.3,59.9629280392756,
otey,non-word,None,n,georgia,2,Georgia63.jpeg,experimental,A,,,,,0,75,75,62,,,,,,,,,,,,,,,,,,,,,,,n,1,0.5661524160004774,129.9095695420001,None,None,None,129.9095695420001,None,,,DA682,2022_Jan_31_1313,LexicalDescionTrial,2021.2.3,59.9629280392756,
yell,word,8.108,w,comic sans,1,ComicSans13.jpeg,experimental,A,,,,,0,76,76,12,,,,,,,,,,,,,,,,,,,,,,,w,1,0.7245152499999676,130.51351516700015,None,130.51351516700015,None,None,None,,,DA682,2022_Jan_31_1313,LexicalDescionTrial,2021.2.3,59.9629280392756,
poet,word,8.147,w,georgia,2,Georgia31.jpeg,experimental,A,,,,,0,77,77,30,,,,,,,,,,,,,,,,,,,,,,,w,1,0.8401246660014294,131.2780020829996,None,None,None,131.2780020829996,None,,,DA682,2022_Jan_31_1313,LexicalDescionTrial,2021.2.3,59.9629280392756,
ture,non-word,None,n,comic sans,1,ComicSans46.jpeg,experimental,A,,,,,0,78,78,45,,,,,,,,,,,,,,,,,,,,,,,n,1,0.6129608330011251,132.162049999999,None,132.162049999999,None,None,None,,,DA682,2022_Jan_31_1313,LexicalDescionTrial,2021.2.3,59.9629280392756,
hobs,non-word,None,n,georgia,2,Georgia66.jpeg,experimental,A,,,,,0,79,79,65,,,,,,,,,,,,,,,,,,,,,,,w,0,0.8694746660003148,132.80950916700021,None,None,None,132.80950916700021,None,,,DA682,2022_Jan_31_1313,LexicalDescionTrial,2021.2.3,59.9629280392756,
,,,,,,,,,,,,,,,,,,,,,,,,,,,,,,,,,,,,,,,,,,,,,,,,133.6953991249993,None,,,,,,
