Stimulus,Type,log_freq_HAL,correct_response,the_font,the_font2,the_jpeg,phase,set,practicetrials.thisRepN,practicetrials.thisTrialN,practicetrials.thisN,practicetrials.thisIndex,trials.thisRepN,trials.thisTrialN,trials.thisN,trials.thisIndex,which_spreadsheet,intro_text.started,intro_text.stopped,key_resp_4.keys,key_resp_4.rt,key_resp_4.started,key_resp_4.stopped,image_practice.started,image_practice.stopped,response_practice.keys,response_practice.corr,response_practice.started,response_practice.stopped,feedback_text.started,feedback_text.stopped,response_practice.rt,text_3.started,text_3.stopped,key_resp_3.keys,key_resp_3.rt,key_resp_3.started,key_resp_3.stopped,key_resp.keys,key_resp.corr,key_resp.rt,key_resp.started,key_resp.stopped,image_comic.started,image_comic.stopped,image_georgia.started,image_georgia.stopped,text_end.started,text_end.stopped,participant,date,expName,psychopyVersion,frameRate,
,,,,,,,,,,,,,,,,,setA.xlsx,16.34938937498373,None,space,11.482677874999354,16.34938937498373,None,,,,,,,,,,,,,,,,,,,,,,,,,,,EU107,2022_Feb_04_0931,LexicalDescionTrial,2021.2.3,60.13048314096329,
gnaw,word,na,w,comic sans,1,practice4.jpeg,practice,practice,0,0,0,3,,,,,,,,,,,,27.909979332995135,None,None,0,27.909979332995135,None,30.921143874991685,None,,,,,,,,,,,,,,,,,,,EU107,2022_Feb_04_0931,LexicalDescionTrial,2021.2.3,60.13048314096329,
pove,non-word,na,n,comic sans,1,practice12.jpeg,practice,practice,0,1,1,11,,,,,,,,,,,,33.940116832993226,None,n,1,33.940116832993226,None,35.64462316600839,None,1.6699644159816671,,,,,,,,,,,,,,,,,,EU107,2022_Feb_04_0931,LexicalDescionTrial,2021.2.3,60.13048314096329,
pond,word,na,w,comic sans,1,practice5.jpeg,practice,practice,0,2,2,4,,,,,,,,,,,,36.65526199998567,None,w,1,36.65526199998567,None,37.78558366600191,None,1.1068632499955129,,,,,,,,,,,,,,,,,,EU107,2022_Feb_04_0931,LexicalDescionTrial,2021.2.3,60.13048314096329,
larp,non-word,na,n,comic sans,1,practice11.jpeg,practice,practice,0,3,3,10,,,,,,,,,,,,38.78782462500385,None,n,1,38.78782462500385,None,40.08553287500399,None,1.268553083005827,,,,,,,,,,,,,,,,,,EU107,2022_Feb_04_0931,LexicalDescionTrial,2021.2.3,60.13048314096329,
kail,non-word,na,n,comic sans,1,practice10.jpeg,practice,practice,0,4,4,9,,,,,,,,,,,,41.087550750002265,None,n,1,41.087550750002265,None,42.3314349160064,None,1.2012000000104308,,,,,,,,,,,,,,,,,,EU107,2022_Feb_04_0931,LexicalDescionTrial,2021.2.3,60.13048314096329,
fizz,word,na,w,georgia,2,practice1.jpeg,practice,practice,0,5,5,0,,,,,,,,,,,,43.33805191598367,None,w,1,43.33805191598367,None,44.30225949999294,None,0.9410456240002532,,,,,,,,,,,,,,,,,,EU107,2022_Feb_04_0931,LexicalDescionTrial,2021.2.3,60.13048314096329,
faud,non-word,na,n,georgia,2,practice9.jpeg,practice,practice,0,6,6,8,,,,,,,,,,,,45.30524804099696,None,n,1,45.30524804099696,None,46.385783582984004,None,1.0489332080178428,,,,,,,,,,,,,,,,,,EU107,2022_Feb_04_0931,LexicalDescionTrial,2021.2.3,60.13048314096329,
mitt,word,na,w,georgia,2,practice3.jpeg,practice,practice,0,7,7,2,,,,,,,,,,,,47.38901799998712,None,n,0,47.38901799998712,None,48.27431087498553,None,0.8625308749906253,,,,,,,,,,,,,,,,,,EU107,2022_Feb_04_0931,LexicalDescionTrial,2021.2.3,60.13048314096329,
ball,word,na,w,georgia,2,practice2.jpeg,practice,practice,0,8,8,1,,,,,,,,,,,,49.289138958003605,None,w,1,49.289138958003605,None,50.30281754099997,None,0.9868451670045033,,,,,,,,,,,,,,,,,,EU107,2022_Feb_04_0931,LexicalDescionTrial,2021.2.3,60.13048314096329,
slim,word,na,w,comic sans,1,practice6.jpeg,practice,practice,0,9,9,5,,,,,,,,,,,,51.305602375010494,None,w,1,51.305602375010494,None,52.052292665990535,None,0.7307027080096304,,,,,,,,,,,,,,,,,,EU107,2022_Feb_04_0931,LexicalDescionTrial,2021.2.3,60.13048314096329,
nars,non-word,na,n,georgia,2,practice8.jpeg,practice,practice,0,10,10,7,,,,,,,,,,,,53.05423970799893,None,n,1,53.05423970799893,None,54.01908633299172,None,0.9392707500082906,,,,,,,,,,,,,,,,,,EU107,2022_Feb_04_0931,LexicalDescionTrial,2021.2.3,60.13048314096329,
darm,non-word,na,n,georgia,2,practice7.jpeg,practice,practice,0,11,11,6,,,,,,,,,,,,55.0213528329914,None,n,1,55.0213528329914,None,56.002385166008025,None,0.9500885410234332,,,,,,,,,,,,,,,,,,EU107,2022_Feb_04_0931,LexicalDescionTrial,2021.2.3,60.13048314096329,
,,,,,,,,,,,,,,,,,,,,,,,,,,,,,,,,,57.00342900000396,None,space,7.772522498999024,57.00342900000396,None,,,,,,,,,,,,EU107,2022_Feb_04_0931,LexicalDescionTrial,2021.2.3,60.13048314096329,
tray,word,8.126,w,comic sans,1,ComicSans19.jpeg,experimental,A,,,,,0,0,0,18,,,,,,,,,,,,,,,,,,,,,,,w,1,0.09462362399790436,64.84465574999922,None,64.84465574999922,None,None,None,,,EU107,2022_Feb_04_0931,LexicalDescionTrial,2021.2.3,60.13048314096329,
voar,non-word,None,n,georgia,2,Georgia70.jpeg,experimental,A,,,,,0,1,1,69,,,,,,,,,,,,,,,,,,,,,,,n,1,2.2498114990012255,64.97119412498432,None,None,None,64.97119412498432,None,,,EU107,2022_Feb_04_0931,LexicalDescionTrial,2021.2.3,60.13048314096329,
mist,word,8.091,w,comic sans,1,ComicSans10.jpeg,experimental,A,,,,,0,2,2,9,,,,,,,,,,,,,,,,,,,,,,,w,1,0.7949810829886701,67.25532883300912,None,67.25532883300912,None,None,None,,,EU107,2022_Feb_04_0931,LexicalDescionTrial,2021.2.3,60.13048314096329,
abem,non-word,None,n,comic sans,1,ComicSans41.jpeg,experimental,A,,,,,0,3,3,40,,,,,,,,,,,,,,,,,,,,,,,n,1,0.7799266660003923,68.07214820801164,None,68.07214820801164,None,None,None,,,EU107,2022_Feb_04_0931,LexicalDescionTrial,2021.2.3,60.13048314096329,
vekd,non-word,None,n,georgia,2,Georgia76.jpeg,experimental,A,,,,,0,4,4,75,,,,,,,,,,,,,,,,,,,,,,,n,1,0.8446377500076778,68.87118291598745,None,None,None,68.87118291598745,None,,,EU107,2022_Feb_04_0931,LexicalDescionTrial,2021.2.3,60.13048314096329,
faza,non-word,None,n,comic sans,1,ComicSans51.jpeg,experimental,A,,,,,0,5,5,50,,,,,,,,,,,,,,,,,,,,,,,n,1,0.6668894160247874,69.75133333299891,None,69.75133333299891,None,None,None,,,EU107,2022_Feb_04_0931,LexicalDescionTrial,2021.2.3,60.13048314096329,
lerm,non-word,None,n,georgia,2,Georgia74.jpeg,experimental,A,,,,,0,6,6,73,,,,,,,,,,,,,,,,,,,,,,,n,1,0.7763261240033899,70.43784429100924,None,None,None,70.43784429100924,None,,,EU107,2022_Feb_04_0931,LexicalDescionTrial,2021.2.3,60.13048314096329,
yell,word,8.108,w,comic sans,1,ComicSans13.jpeg,experimental,A,,,,,0,7,7,12,,,,,,,,,,,,,,,,,,,,,,,w,1,0.757955998997204,71.23695470800158,None,71.23695470800158,None,None,None,,,EU107,2022_Feb_04_0931,LexicalDescionTrial,2021.2.3,60.13048314096329,
hobs,non-word,None,n,georgia,2,Georgia66.jpeg,experimental,A,,,,,0,8,8,65,,,,,,,,,,,,,,,,,,,,,,,w,0,1.5723243329848628,72.02067341600196,None,None,None,72.02067341600196,None,,,EU107,2022_Feb_04_0931,LexicalDescionTrial,2021.2.3,60.13048314096329,
hail,word,8.079,w,comic sans,1,ComicSans5.jpeg,experimental,A,,,,,0,9,9,4,,,,,,,,,,,,,,,,,,,,,,,w,1,0.872999333019834,73.63512904100935,None,73.63512904100935,None,None,None,,,EU107,2022_Feb_04_0931,LexicalDescionTrial,2021.2.3,60.13048314096329,
erks,non-word,None,n,comic sans,1,ComicSans49.jpeg,experimental,A,,,,,0,10,10,48,,,,,,,,,,,,,,,,,,,,,,,n,1,0.7649230000097305,74.54995062499074,None,74.54995062499074,None,None,None,,,EU107,2022_Feb_04_0931,LexicalDescionTrial,2021.2.3,60.13048314096329,
keen,word,8.144,w,georgia,2,Georgia28.jpeg,experimental,A,,,,,0,11,11,27,,,,,,,,,,,,,,,,,,,,,,,w,1,1.3760225000150967,75.35009395799716,None,None,None,75.35009395799716,None,,,EU107,2022_Feb_04_0931,LexicalDescionTrial,2021.2.3,60.13048314096329,
taul,non-word,None,n,comic sans,1,ComicSans57.jpeg,experimental,A,,,,,0,12,12,56,,,,,,,,,,,,,,,,,,,,,,,n,1,0.8671523749944754,76.76750595800695,None,76.76750595800695,None,None,None,,,EU107,2022_Feb_04_0931,LexicalDescionTrial,2021.2.3,60.13048314096329,
chow,word,8.11,w,comic sans,1,ComicSans14.jpeg,experimental,A,,,,,0,13,13,13,,,,,,,,,,,,,,,,,,,,,,,w,1,1.5705314999795519,77.66963225000654,None,77.66963225000654,None,None,None,,,EU107,2022_Feb_04_0931,LexicalDescionTrial,2021.2.3,60.13048314096329,
hers,word,8.142,w,georgia,2,Georgia25.jpeg,experimental,A,,,,,0,14,14,24,,,,,,,,,,,,,,,,,,,,,,,w,1,0.7634964160097297,79.283983833011,None,None,None,79.283983833011,None,,,EU107,2022_Feb_04_0931,LexicalDescionTrial,2021.2.3,60.13048314096329,
bulb,word,8.085,w,comic sans,1,ComicSans9.jpeg,experimental,A,,,,,0,15,15,8,,,,,,,,,,,,,,,,,,,,,,,w,1,0.6438942490203772,80.08393362499191,None,80.08393362499191,None,None,None,,,EU107,2022_Feb_04_0931,LexicalDescionTrial,2021.2.3,60.13048314096329,
watt,word,8.145,w,georgia,2,Georgia30.jpeg,experimental,A,,,,,0,16,16,29,,,,,,,,,,,,,,,,,,,,,,,w,1,0.9506995829869993,80.76689679099945,None,None,None,80.76689679099945,None,,,EU107,2022_Feb_04_0931,LexicalDescionTrial,2021.2.3,60.13048314096329,
wald,non-word,None,n,georgia,2,Georgia80.jpeg,experimental,A,,,,,0,17,17,79,,,,,,,,,,,,,,,,,,,,,,,n,1,1.6791925830184482,81.7496111250075,None,None,None,81.7496111250075,None,,,EU107,2022_Feb_04_0931,LexicalDescionTrial,2021.2.3,60.13048314096329,
bean,word,8.182,w,georgia,2,Georgia36.jpeg,experimental,A,,,,,0,18,18,35,,,,,,,,,,,,,,,,,,,,,,,w,1,0.6403289159934502,83.46733287500683,None,None,None,83.46733287500683,None,,,EU107,2022_Feb_04_0931,LexicalDescionTrial,2021.2.3,60.13048314096329,
oath,word,8.187,w,georgia,2,Georgia38.jpeg,experimental,A,,,,,0,19,19,37,,,,,,,,,,,,,,,,,,,,,,,w,1,0.7947581250045914,84.15184179099742,None,None,None,84.15184179099742,None,,,EU107,2022_Feb_04_0931,LexicalDescionTrial,2021.2.3,60.13048314096329,
soan,non-word,None,n,georgia,2,Georgia62.jpeg,experimental,A,,,,,0,20,20,61,,,,,,,,,,,,,,,,,,,,,,,n,1,0.9564771250006743,84.98491816601017,None,None,None,84.98491816601017,None,,,EU107,2022_Feb_04_0931,LexicalDescionTrial,2021.2.3,60.13048314096329,
hond,non-word,None,n,comic sans,1,ComicSans53.jpeg,experimental,A,,,,,0,21,21,52,,,,,,,,,,,,,,,,,,,,,,,n,1,1.3396467909915373,85.98356550000608,None,85.98356550000608,None,None,None,,,EU107,2022_Feb_04_0931,LexicalDescionTrial,2021.2.3,60.13048314096329,
stem,word,8.183,w,georgia,2,Georgia37.jpeg,experimental,A,,,,,0,22,22,36,,,,,,,,,,,,,,,,,,,,,,,w,1,0.7428355000156444,87.36694404098671,None,None,None,87.36694404098671,None,,,EU107,2022_Feb_04_0931,LexicalDescionTrial,2021.2.3,60.13048314096329,
ebit,non-word,None,n,comic sans,1,ComicSans50.jpeg,experimental,A,,,,,0,23,23,49,,,,,,,,,,,,,,,,,,,,,,,n,1,0.6972085410088766,88.15102316599223,None,88.15102316599223,None,None,None,,,EU107,2022_Feb_04_0931,LexicalDescionTrial,2021.2.3,60.13048314096329,
howl,word,8.079,w,comic sans,1,ComicSans6.jpeg,experimental,A,,,,,0,24,24,5,,,,,,,,,,,,,,,,,,,,,,,w,1,0.6530459579953458,88.8830096659949,None,88.8830096659949,None,None,None,,,EU107,2022_Feb_04_0931,LexicalDescionTrial,2021.2.3,60.13048314096329,
fade,word,8.162,w,georgia,2,Georgia33.jpeg,experimental,A,,,,,0,25,25,32,,,,,,,,,,,,,,,,,,,,,,,w,1,1.4772412499878556,89.56742595799733,None,None,None,89.56742595799733,None,,,EU107,2022_Feb_04_0931,LexicalDescionTrial,2021.2.3,60.13048314096329,
gosh,word,8.054,w,comic sans,1,ComicSans1.jpeg,experimental,A,,,,,0,26,26,0,,,,,,,,,,,,,,,,,,,,,,,w,1,0.5275273330044001,91.08378575000097,None,91.08378575000097,None,None,None,,,EU107,2022_Feb_04_0931,LexicalDescionTrial,2021.2.3,60.13048314096329,
atom,word,8.134,w,georgia,2,Georgia21.jpeg,experimental,A,,,,,0,27,27,20,,,,,,,,,,,,,,,,,,,,,,,w,1,0.9998151659965515,91.6502395409916,None,None,None,91.6502395409916,None,,,EU107,2022_Feb_04_0931,LexicalDescionTrial,2021.2.3,60.13048314096329,
flea,word,8.144,w,georgia,2,Georgia27.jpeg,experimental,A,,,,,0,28,28,26,,,,,,,,,,,,,,,,,,,,,,,w,1,0.6375492500083055,92.68327562499326,None,None,None,92.68327562499326,None,,,EU107,2022_Feb_04_0931,LexicalDescionTrial,2021.2.3,60.13048314096329,
ture,non-word,None,n,comic sans,1,ComicSans46.jpeg,experimental,A,,,,,0,29,29,45,,,,,,,,,,,,,,,,,,,,,,,n,1,1.2743445000087377,93.36707083298825,None,93.36707083298825,None,None,None,,,EU107,2022_Feb_04_0931,LexicalDescionTrial,2021.2.3,60.13048314096329,
sail,word,8.175,w,georgia,2,Georgia35.jpeg,experimental,A,,,,,0,30,30,34,,,,,,,,,,,,,,,,,,,,,,,w,1,1.2156872500199825,94.68502270799945,None,None,None,94.68502270799945,None,,,EU107,2022_Feb_04_0931,LexicalDescionTrial,2021.2.3,60.13048314096329,
bore,word,8.188,w,georgia,2,Georgia39.jpeg,experimental,A,,,,,0,31,31,38,,,,,,,,,,,,,,,,,,,,,,,w,1,0.6447789989761077,95.93374337500427,None,None,None,95.93374337500427,None,,,EU107,2022_Feb_04_0931,LexicalDescionTrial,2021.2.3,60.13048314096329,
otey,non-word,None,n,georgia,2,Georgia63.jpeg,experimental,A,,,,,0,32,32,62,,,,,,,,,,,,,,,,,,,,,,,n,1,0.7609146249887999,96.61786450000363,None,None,None,96.61786450000363,None,,,EU107,2022_Feb_04_0931,LexicalDescionTrial,2021.2.3,60.13048314096329,
muin,non-word,None,n,georgia,2,Georgia67.jpeg,experimental,A,,,,,0,33,33,66,,,,,,,,,,,,,,,,,,,,,,,n,1,0.6846508749877103,97.41875483299373,None,None,None,97.41875483299373,None,,,EU107,2022_Feb_04_0931,LexicalDescionTrial,2021.2.3,60.13048314096329,
yarl,non-word,None,n,georgia,2,Georgia79.jpeg,experimental,A,,,,,0,34,34,78,,,,,,,,,,,,,,,,,,,,,,,n,1,0.740693873987766,98.13325016599265,None,None,None,98.13325016599265,None,,,EU107,2022_Feb_04_0931,LexicalDescionTrial,2021.2.3,60.13048314096329,
gour,non-word,None,n,georgia,2,Georgia71.jpeg,experimental,A,,,,,0,35,35,70,,,,,,,,,,,,,,,,,,,,,,,n,1,1.819569290993968,98.91717979099485,None,None,None,98.91717979099485,None,,,EU107,2022_Feb_04_0931,LexicalDescionTrial,2021.2.3,60.13048314096329,
aged,word,8.142,w,georgia,2,Georgia24.jpeg,experimental,A,,,,,0,36,36,23,,,,,,,,,,,,,,,,,,,,,,,w,1,0.9663238739885855,100.76805362501182,None,None,None,100.76805362501182,None,,,EU107,2022_Feb_04_0931,LexicalDescionTrial,2021.2.3,60.13048314096329,
lamb,word,8.144,w,georgia,2,Georgia29.jpeg,experimental,A,,,,,0,37,37,28,,,,,,,,,,,,,,,,,,,,,,,w,1,0.5826018750085495,101.76732345798519,None,None,None,101.76732345798519,None,,,EU107,2022_Feb_04_0931,LexicalDescionTrial,2021.2.3,60.13048314096329,
dash,word,8.139,w,georgia,2,Georgia23.jpeg,experimental,A,,,,,0,38,38,22,,,,,,,,,,,,,,,,,,,,,,,w,1,0.605340417008847,102.38547358301003,None,None,None,102.38547358301003,None,,,EU107,2022_Feb_04_0931,LexicalDescionTrial,2021.2.3,60.13048314096329,
loth,non-word,None,n,comic sans,1,ComicSans56.jpeg,experimental,A,,,,,0,39,39,55,,,,,,,,,,,,,,,,,,,,,,,w,0,1.1083969580067787,103.03438649998861,None,103.03438649998861,None,None,None,,,EU107,2022_Feb_04_0931,LexicalDescionTrial,2021.2.3,60.13048314096329,
tent,word,8.067,w,comic sans,1,ComicSans3.jpeg,experimental,A,,,,,0,40,40,2,,,,,,,,,,,,,,,,,,,,,,,w,1,1.437904124992201,104.18647687500925,None,104.18647687500925,None,None,None,,,EU107,2022_Feb_04_0931,LexicalDescionTrial,2021.2.3,60.13048314096329,
rine,non-word,None,n,comic sans,1,ComicSans48.jpeg,experimental,A,,,,,0,41,41,47,,,,,,,,,,,,,,,,,,,,,,,n,1,1.1966855830105487,105.66854658300872,None,105.66854658300872,None,None,None,,,EU107,2022_Feb_04_0931,LexicalDescionTrial,2021.2.3,60.13048314096329,
lace,word,8.097,w,comic sans,1,ComicSans11.jpeg,experimental,A,,,,,0,42,42,10,,,,,,,,,,,,,,,,,,,,,,,w,1,0.9152055409795139,106.90002775000175,None,106.90002775000175,None,None,None,,,EU107,2022_Feb_04_0931,LexicalDescionTrial,2021.2.3,60.13048314096329,
tave,non-word,None,n,georgia,2,Georgia65.jpeg,experimental,A,,,,,0,43,43,64,,,,,,,,,,,,,,,,,,,,,,,n,1,0.881409417022951,107.85013520799112,None,None,None,107.85013520799112,None,,,EU107,2022_Feb_04_0931,LexicalDescionTrial,2021.2.3,60.13048314096329,
hesk,non-word,None,n,comic sans,1,ComicSans47.jpeg,experimental,A,,,,,0,44,44,46,,,,,,,,,,,,,,,,,,,,,,,n,1,0.7900775830203202,108.76622566601145,None,108.76622566601145,None,None,None,,,EU107,2022_Feb_04_0931,LexicalDescionTrial,2021.2.3,60.13048314096329,
prop,word,8.112,w,comic sans,1,ComicSans15.jpeg,experimental,A,,,,,0,45,45,14,,,,,,,,,,,,,,,,,,,,,,,w,1,0.6586763740051538,109.59990841598483,None,109.59990841598483,None,None,None,,,EU107,2022_Feb_04_0931,LexicalDescionTrial,2021.2.3,60.13048314096329,
coil,word,8.127,w,comic sans,1,ComicSans20.jpeg,experimental,A,,,,,0,46,46,19,,,,,,,,,,,,,,,,,,,,,,,w,1,0.7104995830159169,110.30202208299306,None,110.30202208299306,None,None,None,,,EU107,2022_Feb_04_0931,LexicalDescionTrial,2021.2.3,60.13048314096329,
chep,non-word,None,n,comic sans,1,ComicSans44.jpeg,experimental,A,,,,,0,47,47,43,,,,,,,,,,,,,,,,,,,,,,,n,1,0.9495234170171898,111.05167591600912,None,111.05167591600912,None,None,None,,,EU107,2022_Feb_04_0931,LexicalDescionTrial,2021.2.3,60.13048314096329,
memo,word,8.108,w,comic sans,1,ComicSans12.jpeg,experimental,A,,,,,0,48,48,11,,,,,,,,,,,,,,,,,,,,,,,w,1,0.7241978330130223,112.03456383300363,None,112.03456383300363,None,None,None,,,EU107,2022_Feb_04_0931,LexicalDescionTrial,2021.2.3,60.13048314096329,
buwl,non-word,None,n,comic sans,1,ComicSans43.jpeg,experimental,A,,,,,0,49,49,42,,,,,,,,,,,,,,,,,,,,,,,n,1,0.9471624160069041,112.80048791598529,None,112.80048791598529,None,None,None,,,EU107,2022_Feb_04_0931,LexicalDescionTrial,2021.2.3,60.13048314096329,
atus,non-word,None,n,comic sans,1,ComicSans42.jpeg,experimental,A,,,,,0,50,50,41,,,,,,,,,,,,,,,,,,,,,,,n,1,0.915853208018234,113.78233820799505,None,113.78233820799505,None,None,None,,,EU107,2022_Feb_04_0931,LexicalDescionTrial,2021.2.3,60.13048314096329,
heas,non-word,None,n,georgia,2,Georgia73.jpeg,experimental,A,,,,,0,51,51,72,,,,,,,,,,,,,,,,,,,,,,,n,1,0.74116083298577,114.7338598750066,None,None,None,114.7338598750066,None,,,EU107,2022_Feb_04_0931,LexicalDescionTrial,2021.2.3,60.13048314096329,
gips,non-word,None,n,georgia,2,Georgia75.jpeg,experimental,A,,,,,0,52,52,74,,,,,,,,,,,,,,,,,,,,,,,n,1,0.9412689990131184,115.51735874998849,None,None,None,115.51735874998849,None,,,EU107,2022_Feb_04_0931,LexicalDescionTrial,2021.2.3,60.13048314096329,
vire,non-word,None,n,georgia,2,Georgia68.jpeg,experimental,A,,,,,0,53,53,67,,,,,,,,,,,,,,,,,,,,,,,n,1,0.9209034160012379,116.49943712499226,None,None,None,116.49943712499226,None,,,EU107,2022_Feb_04_0931,LexicalDescionTrial,2021.2.3,60.13048314096329,
hawk,word,8.188,w,georgia,2,Georgia40.jpeg,experimental,A,,,,,0,54,54,39,,,,,,,,,,,,,,,,,,,,,,,w,1,0.8046285409945995,117.45056958298665,None,None,None,117.45056958298665,None,,,EU107,2022_Feb_04_0931,LexicalDescionTrial,2021.2.3,60.13048314096329,
soda,word,8.122,w,comic sans,1,ComicSans18.jpeg,experimental,A,,,,,0,55,55,17,,,,,,,,,,,,,,,,,,,,,,,w,1,0.6843802489747759,118.29934866601252,None,118.29934866601252,None,None,None,,,EU107,2022_Feb_04_0931,LexicalDescionTrial,2021.2.3,60.13048314096329,
juck,non-word,None,n,georgia,2,Georgia72.jpeg,experimental,A,,,,,0,56,56,71,,,,,,,,,,,,,,,,,,,,,,,n,1,0.8377698330150452,119.01758695801254,None,None,None,119.01758695801254,None,,,EU107,2022_Feb_04_0931,LexicalDescionTrial,2021.2.3,60.13048314096329,
flut,non-word,None,n,georgia,2,Georgia69.jpeg,experimental,A,,,,,0,57,57,68,,,,,,,,,,,,,,,,,,,,,,,n,1,0.9940709990041796,119.90180649998365,None,None,None,119.90180649998365,None,,,EU107,2022_Feb_04_0931,LexicalDescionTrial,2021.2.3,60.13048314096329,
sore,word,8.118,w,comic sans,1,ComicSans17.jpeg,experimental,A,,,,,0,58,58,16,,,,,,,,,,,,,,,,,,,,,,,w,1,0.785776332981186,120.933528708003,None,120.933528708003,None,None,None,,,EU107,2022_Feb_04_0931,LexicalDescionTrial,2021.2.3,60.13048314096329,
nets,word,8.142,w,georgia,2,Georgia26.jpeg,experimental,A,,,,,0,59,59,25,,,,,,,,,,,,,,,,,,,,,,,n,0,0.91104812498088,121.74956245798967,None,None,None,121.74956245798967,None,,,EU107,2022_Feb_04_0931,LexicalDescionTrial,2021.2.3,60.13048314096329,
plaw,non-word,None,n,comic sans,1,ComicSans52.jpeg,experimental,A,,,,,0,60,60,51,,,,,,,,,,,,,,,,,,,,,,,n,1,1.4964305409812368,122.70093724998878,None,122.70093724998878,None,None,None,,,EU107,2022_Feb_04_0931,LexicalDescionTrial,2021.2.3,60.13048314096329,
woke,word,8.078,w,comic sans,1,ComicSans4.jpeg,experimental,A,,,,,0,61,61,3,,,,,,,,,,,,,,,,,,,,,,,w,1,0.6294733330141753,124.23632616599207,None,124.23632616599207,None,None,None,,,EU107,2022_Feb_04_0931,LexicalDescionTrial,2021.2.3,60.13048314096329,
mons,non-word,None,n,comic sans,1,ComicSans45.jpeg,experimental,A,,,,,0,62,62,44,,,,,,,,,,,,,,,,,,,,,,,n,1,1.1799588750000112,124.902611041005,None,124.902611041005,None,None,None,,,EU107,2022_Feb_04_0931,LexicalDescionTrial,2021.2.3,60.13048314096329,
poet,word,8.147,w,georgia,2,Georgia31.jpeg,experimental,A,,,,,0,63,63,30,,,,,,,,,,,,,,,,,,,,,,,w,1,0.8927266669925302,126.11950562498532,None,None,None,126.11950562498532,None,,,EU107,2022_Feb_04_0931,LexicalDescionTrial,2021.2.3,60.13048314096329,
daxy,non-word,None,n,georgia,2,Georgia78.jpeg,experimental,A,,,,,0,64,64,77,,,,,,,,,,,,,,,,,,,,,,,n,1,0.8111679170106072,127.05106941598933,None,None,None,127.05106941598933,None,,,EU107,2022_Feb_04_0931,LexicalDescionTrial,2021.2.3,60.13048314096329,
babe,word,8.059,w,comic sans,1,ComicSans2.jpeg,experimental,A,,,,,0,65,65,1,,,,,,,,,,,,,,,,,,,,,,,w,1,0.5900777500064578,127.90006954100681,None,127.90006954100681,None,None,None,,,EU107,2022_Feb_04_0931,LexicalDescionTrial,2021.2.3,60.13048314096329,
powl,non-word,None,n,comic sans,1,ComicSans60.jpeg,experimental,A,,,,,0,66,66,59,,,,,,,,,,,,,,,,,,,,,,,w,0,1.9797266669920646,128.53414208299364,None,128.53414208299364,None,None,None,,,EU107,2022_Feb_04_0931,LexicalDescionTrial,2021.2.3,60.13048314096329,
woad,non-word,None,n,comic sans,1,ComicSans55.jpeg,experimental,A,,,,,0,67,67,54,,,,,,,,,,,,,,,,,,,,,,,n,1,1.4505476240010466,130.55044579098467,None,130.55044579098467,None,None,None,,,EU107,2022_Feb_04_0931,LexicalDescionTrial,2021.2.3,60.13048314096329,
ears,word,8.15,w,georgia,2,Georgia32.jpeg,experimental,A,,,,,0,68,68,31,,,,,,,,,,,,,,,,,,,,,,,w,1,0.6461680829816032,132.03443137501017,None,None,None,132.03443137501017,None,,,EU107,2022_Feb_04_0931,LexicalDescionTrial,2021.2.3,60.13048314096329,
span,word,8.134,w,georgia,2,Georgia22.jpeg,experimental,A,,,,,0,69,69,21,,,,,,,,,,,,,,,,,,,,,,,n,0,0.9720362910011318,132.71716945798835,None,None,None,132.71716945798835,None,,,EU107,2022_Feb_04_0931,LexicalDescionTrial,2021.2.3,60.13048314096329,
spew,word,8.117,w,comic sans,1,ComicSans16.jpeg,experimental,A,,,,,0,70,70,15,,,,,,,,,,,,,,,,,,,,,,,n,0,1.487076707999222,133.73285341600422,None,133.73285341600422,None,None,None,,,EU107,2022_Feb_04_0931,LexicalDescionTrial,2021.2.3,60.13048314096329,
jets,word,8.081,w,comic sans,1,ComicSans7.jpeg,experimental,A,,,,,0,71,71,6,,,,,,,,,,,,,,,,,,,,,,,w,1,0.575078998983372,135.25280804099748,None,135.25280804099748,None,None,None,,,EU107,2022_Feb_04_0931,LexicalDescionTrial,2021.2.3,60.13048314096329,
joet,non-word,None,n,georgia,2,Georgia61.jpeg,experimental,A,,,,,0,72,72,60,,,,,,,,,,,,,,,,,,,,,,,n,1,1.2007410830119625,135.86744487500982,None,None,None,135.86744487500982,None,,,EU107,2022_Feb_04_0931,LexicalDescionTrial,2021.2.3,60.13048314096329,
peam,non-word,None,n,georgia,2,Georgia64.jpeg,experimental,A,,,,,0,73,73,63,,,,,,,,,,,,,,,,,,,,,,,n,1,1.723652165994281,137.10144216599292,None,None,None,137.10144216599292,None,,,EU107,2022_Feb_04_0931,LexicalDescionTrial,2021.2.3,60.13048314096329,
hilp,non-word,None,n,comic sans,1,ComicSans59.jpeg,experimental,A,,,,,0,74,74,58,,,,,,,,,,,,,,,,,,,,,,,n,1,0.7414944990014192,138.86787149999873,None,138.86787149999873,None,None,None,,,EU107,2022_Feb_04_0931,LexicalDescionTrial,2021.2.3,60.13048314096329,
gelp,non-word,None,n,comic sans,1,ComicSans58.jpeg,experimental,A,,,,,0,75,75,57,,,,,,,,,,,,,,,,,,,,,,,n,1,0.8288464579964057,139.65170208300697,None,139.65170208300697,None,None,None,,,EU107,2022_Feb_04_0931,LexicalDescionTrial,2021.2.3,60.13048314096329,
runk,non-word,None,n,comic sans,1,ComicSans54.jpeg,experimental,A,,,,,0,76,76,53,,,,,,,,,,,,,,,,,,,,,,,n,1,0.5946359580266289,140.51851270798943,None,140.51851270798943,None,None,None,,,EU107,2022_Feb_04_0931,LexicalDescionTrial,2021.2.3,60.13048314096329,
bets,word,8.085,w,comic sans,1,ComicSans8.jpeg,experimental,A,,,,,0,77,77,7,,,,,,,,,,,,,,,,,,,,,,,w,1,0.7907782080001198,141.15129016598803,None,141.15129016598803,None,None,None,,,EU107,2022_Feb_04_0931,LexicalDescionTrial,2021.2.3,60.13048314096329,
cial,non-word,None,n,georgia,2,Georgia77.jpeg,experimental,A,,,,,0,78,78,76,,,,,,,,,,,,,,,,,,,,,,,n,1,0.6260475830058567,141.98402816598536,None,None,None,141.98402816598536,None,,,EU107,2022_Feb_04_0931,LexicalDescionTrial,2021.2.3,60.13048314096329,
cone,word,8.72,w,georgia,2,Georgia34.jpeg,experimental,A,,,,,0,79,79,33,,,,,,,,,,,,,,,,,,,,,,,w,1,0.8841004579735454,142.65346154099097,None,None,None,142.65346154099097,None,,,EU107,2022_Feb_04_0931,LexicalDescionTrial,2021.2.3,60.13048314096329,
,,,,,,,,,,,,,,,,,,,,,,,,,,,,,,,,,,,,,,,,,,,,,,,,143.5701840829861,None,,,,,,
